 [antenna_pattern.dat]

  É” = 0.000 Åãplane
   É∆(deg)       EÉ”       EÉ∆       ER        EL 
     0.000   -1.4318   -1.6186   -1.4632   -2.0155
     1.000   -1.4421   -1.6194   -1.4336   -2.0615
     2.000   -1.4531   -1.6233   -1.4061   -2.1099
     3.000   -1.4649   -1.6302   -1.3806   -2.1606
     4.000   -1.4773   -1.6400   -1.3571   -2.2136
     5.000   -1.4905   -1.6530   -1.3357   -2.2690
     6.000   -1.5044   -1.6689   -1.3164   -2.3267
     7.000   -1.5190   -1.6879   -1.2991   -2.3868
     8.000   -1.5344   -1.7099   -1.2840   -2.4491
     9.000   -1.5504   -1.7349   -1.2709   -2.5138
    10.000   -1.5671   -1.7630   -1.2599   -2.5808
    11.000   -1.5846   -1.7941   -1.2510   -2.6501
    12.000   -1.6027   -1.8283   -1.2442   -2.7217
    13.000   -1.6214   -1.8656   -1.2394   -2.7955
    14.000   -1.6408   -1.9059   -1.2368   -2.8716
    15.000   -1.6609   -1.9494   -1.2363   -2.9499
    16.000   -1.6816   -1.9959   -1.2378   -3.0304
    17.000   -1.7029   -2.0456   -1.2415   -3.1131
    18.000   -1.7248   -2.0984   -1.2472   -3.1980
    19.000   -1.7473   -2.1544   -1.2551   -3.2850
    20.000   -1.7704   -2.2136   -1.2650   -3.3741
    21.000   -1.7940   -2.2760   -1.2769   -3.4652
    22.000   -1.8182   -2.3416   -1.2910   -3.5583
    23.000   -1.8428   -2.4104   -1.3071   -3.6535
    24.000   -1.8680   -2.4825   -1.3253   -3.7505
    25.000   -1.8936   -2.5580   -1.3455   -3.8494
    26.000   -1.9197   -2.6368   -1.3678   -3.9501
    27.000   -1.9461   -2.7190   -1.3921   -4.0526
    28.000   -1.9730   -2.8046   -1.4185   -4.1567
    29.000   -2.0003   -2.8937   -1.4469   -4.2624
    30.000   -2.0279   -2.9862   -1.4773   -4.3697
    31.000   -2.0558   -3.0824   -1.5097   -4.4784
    32.000   -2.0840   -3.1822   -1.5441   -4.5884
    33.000   -2.1125   -3.2856   -1.5806   -4.6996
    34.000   -2.1412   -3.3928   -1.6190   -4.8120
    35.000   -2.1701   -3.5038   -1.6594   -4.9254
    36.000   -2.1992   -3.6187   -1.7017   -5.0396
    37.000   -2.2284   -3.7376   -1.7460   -5.1545
    38.000   -2.2578   -3.8605   -1.7923   -5.2700
    39.000   -2.2873   -3.9875   -1.8405   -5.3860
    40.000   -2.3168   -4.1188   -1.8906   -5.5022
    41.000   -2.3463   -4.2544   -1.9427   -5.6184
    42.000   -2.3758   -4.3945   -1.9967   -5.7345
    43.000   -2.4053   -4.5392   -2.0526   -5.8502
    44.000   -2.4348   -4.6887   -2.1103   -5.9654
    45.000   -2.4641   -4.8430   -2.1700   -6.0798
    46.000   -2.4933   -5.0023   -2.2315   -6.1931
    47.000   -2.5223   -5.1669   -2.2949   -6.3050
    48.000   -2.5512   -5.3368   -2.3602   -6.4154
    49.000   -2.5797   -5.5124   -2.4272   -6.5239
    50.000   -2.6081   -5.6937   -2.4961   -6.6302
    51.000   -2.6361   -5.8812   -2.5669   -6.7340
    52.000   -2.6638   -6.0749   -2.6394   -6.8350
    53.000   -2.6912   -6.2753   -2.7137   -6.9329
    54.000   -2.7181   -6.4826   -2.7898   -7.0273
    55.000   -2.7446   -6.6971   -2.8676   -7.1178
    56.000   -2.7707   -6.9193   -2.9472   -7.2042
    57.000   -2.7962   -7.1495   -3.0285   -7.2860
    58.000   -2.8213   -7.3881   -3.1115   -7.3631
    59.000   -2.8458   -7.6358   -3.1962   -7.4349
    60.000   -2.8697   -7.8929   -3.2825   -7.5012
    61.000   -2.8930   -8.1602   -3.3705   -7.5618
    62.000   -2.9156   -8.4383   -3.4601   -7.6162
    63.000   -2.9375   -8.7279   -3.5513   -7.6642
    64.000   -2.9588   -9.0298   -3.6440   -7.7057
    65.000   -2.9793   -9.3450   -3.7383   -7.7403
    66.000   -2.9990   -9.6745   -3.8340   -7.7678
    67.000   -3.0180  -10.0195   -3.9311   -7.7882
    68.000   -3.0361  -10.3814   -4.0296   -7.8013
    69.000   -3.0534  -10.7617   -4.1295   -7.8070
    70.000   -3.0698  -11.1620   -4.2306   -7.8052
    71.000   -3.0853  -11.5846   -4.3329   -7.7961
    72.000   -3.0999  -12.0316   -4.4364   -7.7796
    73.000   -3.1135  -12.5060   -4.5409   -7.7557
    74.000   -3.1262  -13.0109   -4.6464   -7.7247
    75.000   -3.1379  -13.5503   -4.7527   -7.6866
    76.000   -3.1485  -14.1289   -4.8598   -7.6417
    77.000   -3.1581  -14.7525   -4.9676   -7.5901
    78.000   -3.1666  -15.4283   -5.0759   -7.5321
    79.000   -3.1740  -16.1652   -5.1846   -7.4679
    80.000   -3.1804  -16.9751   -5.2935   -7.3979
    81.000   -3.1856  -17.8732   -5.4025   -7.3223
    82.000   -3.1897  -18.8804   -5.5113   -7.2413
    83.000   -3.1926  -20.0257   -5.6198   -7.1555
    84.000   -3.1943  -21.3519   -5.7278   -7.0649
    85.000   -3.1949  -22.9250   -5.8350   -6.9701
    86.000   -3.1943  -24.8554   -5.9412   -6.8713
    87.000   -3.1924  -27.3483   -6.0461   -6.7687
    88.000   -3.1893  -30.0000   -6.1494   -6.6629
    89.000   -3.1850  -30.0000   -6.2509   -6.5539
    90.000   -3.1795  -30.0000   -6.3501   -6.4422
    91.000   -3.1727  -30.0000   -6.4467   -6.3280
    92.000   -3.1646  -30.0000   -6.5404   -6.2117
    93.000   -3.1553  -26.9319   -6.6308   -6.0934
    94.000   -3.1447  -24.4796   -6.7175   -5.9734
    95.000   -3.1329  -22.5601   -6.8002   -5.8520
    96.000   -3.1197  -20.9827   -6.8782   -5.7294
    97.000   -3.1054  -19.6437   -6.9514   -5.6058
    98.000   -3.0897  -18.4801   -7.0192   -5.4815
    99.000   -3.0728  -17.4512   -7.0812   -5.3565
   100.000   -3.0546  -16.5289   -7.1371   -5.2312
   101.000   -3.0352  -15.6933   -7.1864   -5.1056
   102.000   -3.0146  -14.9293   -7.2287   -4.9800
   103.000   -2.9927  -14.2257   -7.2638   -4.8545
   104.000   -2.9696  -13.5738   -7.2912   -4.7292
   105.000   -2.9454  -12.9664   -7.3108   -4.6042
   106.000   -2.9199  -12.3980   -7.3223   -4.4797
   107.000   -2.8932  -11.8640   -7.3255   -4.3559
   108.000   -2.8655  -11.3606   -7.3203   -4.2327
   109.000   -2.8366  -10.8845   -7.3066   -4.1103
   110.000   -2.8065  -10.4330   -7.2844   -3.9888
   111.000   -2.7754  -10.0039   -7.2537   -3.8684
   112.000   -2.7433   -9.5951   -7.2146   -3.7489
   113.000   -2.7101   -9.2050   -7.1672   -3.6306
   114.000   -2.6759   -8.8320   -7.1118   -3.5136
   115.000   -2.6408   -8.4748   -7.0487   -3.3978
   116.000   -2.6047   -8.1323   -6.9780   -3.2833
   117.000   -2.5677   -7.8035   -6.9002   -3.1703
   118.000   -2.5299   -7.4875   -6.8157   -3.0587
   119.000   -2.4912   -7.1833   -6.7247   -2.9486
   120.000   -2.4517   -6.8905   -6.6277   -2.8401
   121.000   -2.4115   -6.6082   -6.5252   -2.7332
   122.000   -2.3706   -6.3358   -6.4177   -2.6279
   123.000   -2.3290   -6.0730   -6.3054   -2.5243
   124.000   -2.2867   -5.8191   -6.1890   -2.4225
   125.000   -2.2439   -5.5737   -6.0688   -2.3224
   126.000   -2.2005   -5.3365   -5.9453   -2.2241
   127.000   -2.1566   -5.1071   -5.8189   -2.1276
   128.000   -2.1123   -4.8851   -5.6900   -2.0330
   129.000   -2.0676   -4.6703   -5.5591   -1.9403
   130.000   -2.0225   -4.4624   -5.4264   -1.8495
   131.000   -1.9770   -4.2610   -5.2923   -1.7606
   132.000   -1.9313   -4.0660   -5.1572   -1.6737
   133.000   -1.8854   -3.8772   -5.0214   -1.5888
   134.000   -1.8393   -3.6943   -4.8853   -1.5059
   135.000   -1.7931   -3.5171   -4.7490   -1.4251
   136.000   -1.7468   -3.3456   -4.6128   -1.3463
   137.000   -1.7005   -3.1795   -4.4770   -1.2696
   138.000   -1.6541   -3.0187   -4.3418   -1.1950
   139.000   -1.6079   -2.8630   -4.2074   -1.1225
   140.000   -1.5617   -2.7123   -4.0740   -1.0521
   141.000   -1.5157   -2.5665   -3.9417   -0.9839
   142.000   -1.4699   -2.4255   -3.8108   -0.9179
   143.000   -1.4243   -2.2892   -3.6814   -0.8541
   144.000   -1.3790   -2.1574   -3.5535   -0.7924
   145.000   -1.3340   -2.0301   -3.4274   -0.7330
   146.000   -1.2894   -1.9073   -3.3031   -0.6758
   147.000   -1.2453   -1.7888   -3.1808   -0.6209
   148.000   -1.2015   -1.6745   -3.0605   -0.5682
   149.000   -1.1583   -1.5644   -2.9422   -0.5178
   150.000   -1.1156   -1.4584   -2.8262   -0.4696
   151.000   -1.0735   -1.3565   -2.7124   -0.4238
   152.000   -1.0319   -1.2586   -2.6009   -0.3802
   153.000   -0.9911   -1.1647   -2.4918   -0.3390
   154.000   -0.9509   -1.0746   -2.3851   -0.3001
   155.000   -0.9114   -0.9884   -2.2808   -0.2635
   156.000   -0.8727   -0.9061   -2.1791   -0.2293
   157.000   -0.8347   -0.8275   -2.0798   -0.1975
   158.000   -0.7976   -0.7526   -1.9831   -0.1679
   159.000   -0.7612   -0.6814   -1.8890   -0.1408
   160.000   -0.7258   -0.6139   -1.7975   -0.1160
   161.000   -0.6913   -0.5501   -1.7086   -0.0936
   162.000   -0.6576   -0.4899   -1.6223   -0.0736
   163.000   -0.6249   -0.4332   -1.5387   -0.0560
   164.000   -0.5932   -0.3801   -1.4577   -0.0408
   165.000   -0.5625   -0.3306   -1.3794   -0.0280
   166.000   -0.5328   -0.2845   -1.3038   -0.0176
   167.000   -0.5041   -0.2420   -1.2309   -0.0096
   168.000   -0.4764   -0.2030   -1.1607   -0.0040
   169.000   -0.4498   -0.1674   -1.0931   -0.0008
   170.000   -0.4243   -0.1353   -1.0283    0.0000
   171.000   -0.3999   -0.1066   -0.9661   -0.0016
   172.000   -0.3766   -0.0814   -0.9066   -0.0057
   173.000   -0.3544   -0.0595   -0.8498   -0.0122
   174.000   -0.3334   -0.0411   -0.7957   -0.0210
   175.000   -0.3134   -0.0261   -0.7443   -0.0323
   176.000   -0.2947   -0.0145   -0.6956   -0.0460
   177.000   -0.2770   -0.0063   -0.6495   -0.0621
   178.000   -0.2606   -0.0014   -0.6061   -0.0806
   179.000   -0.2452    0.0000   -0.5653   -0.1015
   180.000   -0.2311   -0.0019   -0.5272   -0.1248
   181.000   -0.2181   -0.0073   -0.4918   -0.1505
   182.000   -0.2063   -0.0160   -0.4589   -0.1785
   183.000   -0.1957   -0.0281   -0.4287   -0.2089
   184.000   -0.1862   -0.0435   -0.4011   -0.2417
   185.000   -0.1778   -0.0624   -0.3760   -0.2767
   186.000   -0.1707   -0.0847   -0.3536   -0.3142
   187.000   -0.1647   -0.1104   -0.3337   -0.3539
   188.000   -0.1598   -0.1394   -0.3164   -0.3959
   189.000   -0.1561   -0.1720   -0.3016   -0.4402
   190.000   -0.1535   -0.2079   -0.2893   -0.4868
   191.000   -0.1520   -0.2473   -0.2796   -0.5357
   192.000   -0.1516   -0.2901   -0.2724   -0.5867
   193.000   -0.1524   -0.3364   -0.2676   -0.6400
   194.000   -0.1542   -0.3862   -0.2653   -0.6954
   195.000   -0.1571   -0.4395   -0.2654   -0.7530
   196.000   -0.1611   -0.4964   -0.2680   -0.8127
   197.000   -0.1661   -0.5567   -0.2730   -0.8745
   198.000   -0.1721   -0.6207   -0.2804   -0.9384
   199.000   -0.1791   -0.6882   -0.2902   -1.0043
   200.000   -0.1871   -0.7593   -0.3023   -1.0721
   201.000   -0.1961   -0.8341   -0.3167   -1.1420
   202.000   -0.2061   -0.9125   -0.3335   -1.2137
   203.000   -0.2170   -0.9947   -0.3525   -1.2873
   204.000   -0.2288   -1.0806   -0.3739   -1.3627
   205.000   -0.2415   -1.1703   -0.3974   -1.4398
   206.000   -0.2550   -1.2637   -0.4232   -1.5187
   207.000   -0.2694   -1.3611   -0.4512   -1.5992
   208.000   -0.2846   -1.4623   -0.4814   -1.6813
   209.000   -0.3006   -1.5676   -0.5137   -1.7649
   210.000   -0.3174   -1.6768   -0.5482   -1.8499
   211.000   -0.3349   -1.7900   -0.5847   -1.9363
   212.000   -0.3531   -1.9074   -0.6233   -2.0240
   213.000   -0.3720   -2.0290   -0.6640   -2.1129
   214.000   -0.3916   -2.1549   -0.7067   -2.2029
   215.000   -0.4117   -2.2850   -0.7513   -2.2940
   216.000   -0.4325   -2.4196   -0.7979   -2.3860
   217.000   -0.4539   -2.5587   -0.8465   -2.4788
   218.000   -0.4758   -2.7024   -0.8969   -2.5723
   219.000   -0.4982   -2.8507   -0.9492   -2.6663
   220.000   -0.5211   -3.0039   -1.0033   -2.7609
   221.000   -0.5444   -3.1619   -1.0592   -2.8558
   222.000   -0.5682   -3.3250   -1.1168   -2.9510
   223.000   -0.5923   -3.4932   -1.1762   -3.0462
   224.000   -0.6168   -3.6667   -1.2372   -3.1413
   225.000   -0.6416   -3.8457   -1.2998   -3.2363
   226.000   -0.6667   -4.0303   -1.3641   -3.3308
   227.000   -0.6921   -4.2206   -1.4299   -3.4248
   228.000   -0.7177   -4.4170   -1.4972   -3.5182
   229.000   -0.7435   -4.6195   -1.5660   -3.6106
   230.000   -0.7694   -4.8285   -1.6362   -3.7020
   231.000   -0.7955   -5.0441   -1.7078   -3.7922
   232.000   -0.8217   -5.2666   -1.7807   -3.8810
   233.000   -0.8480   -5.4963   -1.8549   -3.9682
   234.000   -0.8743   -5.7336   -1.9302   -4.0536
   235.000   -0.9006   -5.9788   -2.0068   -4.1370
   236.000   -0.9269   -6.2321   -2.0845   -4.2183
   237.000   -0.9531   -6.4942   -2.1632   -4.2972
   238.000   -0.9792   -6.7654   -2.2429   -4.3736
   239.000   -1.0052   -7.0462   -2.3236   -4.4472
   240.000   -1.0311   -7.3371   -2.4051   -4.5180
   241.000   -1.0568   -7.6389   -2.4874   -4.5857
   242.000   -1.0824   -7.9521   -2.5705   -4.6501
   243.000   -1.1076   -8.2776   -2.6542   -4.7111
   244.000   -1.1327   -8.6162   -2.7385   -4.7686
   245.000   -1.1574   -8.9688   -2.8234   -4.8224
   246.000   -1.1819   -9.3366   -2.9087   -4.8723
   247.000   -1.2060   -9.7208   -2.9944   -4.9183
   248.000   -1.2298  -10.1227   -3.0803   -4.9603
   249.000   -1.2531  -10.5440   -3.1664   -4.9981
   250.000   -1.2761  -10.9865   -3.2527   -5.0317
   251.000   -1.2987  -11.4524   -3.3390   -5.0610
   252.000   -1.3208  -11.9442   -3.4252   -5.0859
   253.000   -1.3425  -12.4648   -3.5112   -5.1066
   254.000   -1.3636  -13.0178   -3.5970   -5.1229
   255.000   -1.3843  -13.6073   -3.6823   -5.1348
   256.000   -1.4044  -14.2385   -3.7672   -5.1424
   257.000   -1.4240  -14.9176   -3.8516   -5.1458
   258.000   -1.4431  -15.6527   -3.9352   -5.1449
   259.000   -1.4616  -16.4537   -4.0180   -5.1398
   260.000   -1.4795  -17.3337   -4.0999   -5.1307
   261.000   -1.4968  -18.3101   -4.1807   -5.1176
   262.000   -1.5135  -19.4069   -4.2603   -5.1006
   263.000   -1.5296  -20.6583   -4.3387   -5.0799
   264.000   -1.5450  -22.1156   -4.4156   -5.0555
   265.000   -1.5598  -23.8609   -4.4909   -5.0277
   266.000   -1.5740  -26.0380   -4.5646   -4.9965
   267.000   -1.5875  -28.9350   -4.6364   -4.9621
   268.000   -1.6004  -30.0000   -4.7063   -4.9247
   269.000   -1.6126  -30.0000   -4.7741   -4.8844
   270.000   -1.6241  -30.0000   -4.8396   -4.8413
   271.000   -1.6350  -30.0000   -4.9028   -4.7958
   272.000   -1.6452  -29.2210   -4.9635   -4.7478
   273.000   -1.6547  -26.2991   -5.0215   -4.6975
   274.000   -1.6636  -24.1225   -5.0768   -4.6452
   275.000   -1.6718  -22.3893   -5.1292   -4.5910
   276.000   -1.6793  -20.9504   -5.1786   -4.5349
   277.000   -1.6861  -19.7210   -5.2249   -4.4773
   278.000   -1.6923  -18.6485   -5.2679   -4.4182
   279.000   -1.6978  -17.6979   -5.3075   -4.3578
   280.000   -1.7027  -16.8448   -5.3437   -4.2962
   281.000   -1.7069  -16.0713   -5.3763   -4.2335
   282.000   -1.7104  -15.3643   -5.4052   -4.1699
   283.000   -1.7134  -14.7134   -5.4304   -4.1056
   284.000   -1.7157  -14.1107   -5.4519   -4.0405
   285.000   -1.7174  -13.5497   -5.4694   -3.9749
   286.000   -1.7185  -13.0252   -5.4831   -3.9089
   287.000   -1.7190  -12.5330   -5.4928   -3.8426
   288.000   -1.7189  -12.0696   -5.4985   -3.7760
   289.000   -1.7183  -11.6318   -5.5002   -3.7093
   290.000   -1.7170  -11.2172   -5.4979   -3.6425
   291.000   -1.7153  -10.8236   -5.4916   -3.5759
   292.000   -1.7130  -10.4491   -5.4814   -3.5093
   293.000   -1.7102  -10.0921   -5.4672   -3.4430
   294.000   -1.7069   -9.7512   -5.4492   -3.3771
   295.000   -1.7031   -9.4251   -5.4272   -3.3115
   296.000   -1.6989   -9.1126   -5.4016   -3.2463
   297.000   -1.6942   -8.8129   -5.3722   -3.1817
   298.000   -1.6891   -8.5251   -5.3392   -3.1177
   299.000   -1.6835   -8.2484   -5.3027   -3.0543
   300.000   -1.6776   -7.9820   -5.2628   -2.9917
   301.000   -1.6713   -7.7254   -5.2196   -2.9298
   302.000   -1.6646   -7.4780   -5.1733   -2.8688
   303.000   -1.6576   -7.2394   -5.1239   -2.8087
   304.000   -1.6503   -7.0089   -5.0716   -2.7495
   305.000   -1.6427   -6.7862   -5.0166   -2.6913
   306.000   -1.6349   -6.5710   -4.9589   -2.6341
   307.000   -1.6267   -6.3628   -4.8988   -2.5780
   308.000   -1.6184   -6.1614   -4.8363   -2.5231
   309.000   -1.6098   -5.9665   -4.7717   -2.4693
   310.000   -1.6011   -5.7777   -4.7050   -2.4168
   311.000   -1.5922   -5.5949   -4.6365   -2.3655
   312.000   -1.5832   -5.4178   -4.5663   -2.3155
   313.000   -1.5740   -5.2463   -4.4946   -2.2668
   314.000   -1.5648   -5.0800   -4.4214   -2.2195
   315.000   -1.5555   -4.9189   -4.3470   -2.1736
   316.000   -1.5461   -4.7628   -4.2715   -2.1292
   317.000   -1.5367   -4.6115   -4.1950   -2.0863
   318.000   -1.5274   -4.4649   -4.1177   -2.0448
   319.000   -1.5180   -4.3229   -4.0397   -2.0049
   320.000   -1.5088   -4.1853   -3.9612   -1.9666
   321.000   -1.4995   -4.0521   -3.8823   -1.9299
   322.000   -1.4904   -3.9231   -3.8031   -1.8948
   323.000   -1.4815   -3.7982   -3.7238   -1.8614
   324.000   -1.4726   -3.6773   -3.6444   -1.8297
   325.000   -1.4640   -3.5605   -3.5650   -1.7997
   326.000   -1.4555   -3.4475   -3.4859   -1.7715
   327.000   -1.4473   -3.3383   -3.4071   -1.7450
   328.000   -1.4393   -3.2329   -3.3287   -1.7204
   329.000   -1.4316   -3.1312   -3.2508   -1.6976
   330.000   -1.4241   -3.0331   -3.1735   -1.6767
   331.000   -1.4170   -2.9386   -3.0968   -1.6576
   332.000   -1.4102   -2.8477   -3.0210   -1.6405
   333.000   -1.4038   -2.7602   -2.9460   -1.6252
   334.000   -1.3977   -2.6762   -2.8720   -1.6120
   335.000   -1.3921   -2.5956   -2.7990   -1.6007
   336.000   -1.3868   -2.5184   -2.7270   -1.5914
   337.000   -1.3821   -2.4445   -2.6563   -1.5842
   338.000   -1.3777   -2.3739   -2.5867   -1.5790
   339.000   -1.3739   -2.3066   -2.5185   -1.5758
   340.000   -1.3705   -2.2426   -2.4516   -1.5748
   341.000   -1.3677   -2.1818   -2.3861   -1.5758
   342.000   -1.3654   -2.1242   -2.3220   -1.5789
   343.000   -1.3637   -2.0698   -2.2595   -1.5842
   344.000   -1.3625   -2.0185   -2.1985   -1.5917
   345.000   -1.3619   -1.9704   -2.1391   -1.6013
   346.000   -1.3620   -1.9255   -2.0814   -1.6131
   347.000   -1.3626   -1.8836   -2.0253   -1.6271
   348.000   -1.3639   -1.8449   -1.9709   -1.6434
   349.000   -1.3658   -1.8092   -1.9183   -1.6618
   350.000   -1.3683   -1.7767   -1.8675   -1.6826
   351.000   -1.3715   -1.7472   -1.8185   -1.7055
   352.000   -1.3754   -1.7207   -1.7714   -1.7308
   353.000   -1.3800   -1.6973   -1.7261   -1.7583
   354.000   -1.3853   -1.6770   -1.6827   -1.7881
   355.000   -1.3913   -1.6597   -1.6412   -1.8202
   356.000   -1.3979   -1.6454   -1.6016   -1.8546
   357.000   -1.4053   -1.6342   -1.5641   -1.8913
   358.000   -1.4134   -1.6260   -1.5284   -1.9304
   359.000   -1.4223   -1.6208   -1.4948   -1.9717
   360.000   -1.4318   -1.6186   -1.4632   -2.0155




  É” = 0.000 Åãplane
   É∆(deg)       EÉ”       EÉ∆       ER        EL 
     0.000   -1.8600   -2.0876   -1.8709   -2.4120
     1.000   -1.8706   -2.0882   -1.8453   -2.4537
     2.000   -1.8821   -2.0919   -1.8217   -2.4977
     3.000   -1.8946   -2.0988   -1.8002   -2.5442
     4.000   -1.9081   -2.1086   -1.7808   -2.5930
     5.000   -1.9225   -2.1216   -1.7636   -2.6444
     6.000   -1.9379   -2.1376   -1.7485   -2.6981
     7.000   -1.9543   -2.1567   -1.7356   -2.7542
     8.000   -1.9716   -2.1789   -1.7248   -2.8128
     9.000   -1.9899   -2.2042   -1.7161   -2.8737
    10.000   -2.0091   -2.2325   -1.7096   -2.9371
    11.000   -2.0292   -2.2640   -1.7053   -3.0029
    12.000   -2.0503   -2.2985   -1.7031   -3.0710
    13.000   -2.0722   -2.3362   -1.7030   -3.1415
    14.000   -2.0951   -2.3769   -1.7051   -3.2144
    15.000   -2.1189   -2.4208   -1.7094   -3.2896
    16.000   -2.1435   -2.4679   -1.7157   -3.3671
    17.000   -2.1689   -2.5180   -1.7243   -3.4469
    18.000   -2.1952   -2.5714   -1.7350   -3.5290
    19.000   -2.2223   -2.6279   -1.7478   -3.6134
    20.000   -2.2502   -2.6876   -1.7627   -3.7000
    21.000   -2.2789   -2.7505   -1.7798   -3.7887
    22.000   -2.3083   -2.8167   -1.7989   -3.8796
    23.000   -2.3385   -2.8861   -1.8202   -3.9727
    24.000   -2.3693   -2.9587   -1.8436   -4.0678
    25.000   -2.4008   -3.0347   -1.8690   -4.1649
    26.000   -2.4329   -3.1141   -1.8966   -4.2640
    27.000   -2.4657   -3.1967   -1.9262   -4.3650
    28.000   -2.4990   -3.2828   -1.9579   -4.4679
    29.000   -2.5329   -3.3724   -1.9916   -4.5726
    30.000   -2.5673   -3.4654   -2.0274   -4.6790
    31.000   -2.6022   -3.5619   -2.0652   -4.7871
    32.000   -2.6375   -3.6620   -2.1051   -4.8967
    33.000   -2.6732   -3.7657   -2.1470   -5.0079
    34.000   -2.7093   -3.8731   -2.1908   -5.1204
    35.000   -2.7457   -3.9843   -2.2367   -5.2342
    36.000   -2.7825   -4.0993   -2.2845   -5.3492
    37.000   -2.8195   -4.2181   -2.3343   -5.4652
    38.000   -2.8567   -4.3410   -2.3861   -5.5821
    39.000   -2.8941   -4.4679   -2.4398   -5.6999
    40.000   -2.9316   -4.5989   -2.4955   -5.8183
    41.000   -2.9693   -4.7342   -2.5530   -5.9371
    42.000   -3.0069   -4.8739   -2.6125   -6.0563
    43.000   -3.0446   -5.0181   -2.6739   -6.1756
    44.000   -3.0823   -5.1668   -2.7372   -6.2948
    45.000   -3.1199   -5.3204   -2.8023   -6.4138
    46.000   -3.1573   -5.4788   -2.8693   -6.5322
    47.000   -3.1946   -5.6424   -2.9382   -6.6499
    48.000   -3.2316   -5.8112   -3.0089   -6.7667
    49.000   -3.2684   -5.9854   -3.0814   -6.8822
    50.000   -3.3049   -6.1653   -3.1557   -6.9962
    51.000   -3.3411   -6.3512   -3.2318   -7.1083
    52.000   -3.3768   -6.5432   -3.3097   -7.2184
    53.000   -3.4121   -6.7416   -3.3893   -7.3260
    54.000   -3.4469   -6.9468   -3.4707   -7.4309
    55.000   -3.4812   -7.1591   -3.5538   -7.5327
    56.000   -3.5149   -7.3788   -3.6386   -7.6311
    57.000   -3.5479   -7.6064   -3.7251   -7.7257
    58.000   -3.5803   -7.8422   -3.8133   -7.8162
    59.000   -3.6120   -8.0868   -3.9030   -7.9021
    60.000   -3.6429   -8.3407   -3.9944   -7.9832
    61.000   -3.6730   -8.6045   -4.0874   -8.0591
    62.000   -3.7022   -8.8789   -4.1819   -8.1294
    63.000   -3.7305   -9.1645   -4.2779   -8.1938
    64.000   -3.7579   -9.4622   -4.3754   -8.2520
    65.000   -3.7843   -9.7730   -4.4742   -8.3037
    66.000   -3.8097  -10.0978   -4.5745   -8.3485
    67.000   -3.8340  -10.4378   -4.6761   -8.3864
    68.000   -3.8572  -10.7943   -4.7790   -8.4169
    69.000   -3.8792  -11.1688   -4.8830   -8.4399
    70.000   -3.9001  -11.5632   -4.9882   -8.4554
    71.000   -3.9197  -11.9792   -5.0944   -8.4630
    72.000   -3.9381  -12.4194   -5.2016   -8.4629
    73.000   -3.9552  -12.8863   -5.3096   -8.4549
    74.000   -3.9709  -13.3832   -5.4183   -8.4391
    75.000   -3.9853  -13.9140   -5.5277   -8.4155
    76.000   -3.9982  -14.4832   -5.6376   -8.3842
    77.000   -4.0098  -15.0965   -5.7478   -8.3453
    78.000   -4.0198  -15.7608   -5.8582   -8.2990
    79.000   -4.0284  -16.4850   -5.9686   -8.2456
    80.000   -4.0354  -17.2804   -6.0788   -8.1851
    81.000   -4.0410  -18.1616   -6.1887   -8.1180
    82.000   -4.0449  -19.1488   -6.2979   -8.0444
    83.000   -4.0473  -20.2696   -6.4062   -7.9647
    84.000   -4.0480  -21.5646   -6.5134   -7.8792
    85.000   -4.0471  -23.0959   -6.6191   -7.7882
    86.000   -4.0446  -24.9656   -6.7232   -7.6921
    87.000   -4.0404  -27.3600   -6.8251   -7.5912
    88.000   -4.0345  -30.0000   -6.9246   -7.4858
    89.000   -4.0269  -30.0000   -7.0213   -7.3763
    90.000   -4.0177  -30.0000   -7.1149   -7.2631
    91.000   -4.0067  -30.0000   -7.2048   -7.1464
    92.000   -3.9940  -30.0000   -7.2907   -7.0266
    93.000   -3.9796  -27.5862   -7.3722   -6.9040
    94.000   -3.9635  -25.0551   -7.4487   -6.7790
    95.000   -3.9457  -23.0838   -7.5199   -6.6517
    96.000   -3.9262  -21.4691   -7.5853   -6.5225
    97.000   -3.9050  -20.1011   -7.6444   -6.3916
    98.000   -3.8821  -18.9141   -7.6969   -6.2594
    99.000   -3.8575  -17.8654   -7.7422   -6.1259
   100.000   -3.8312  -16.9260   -7.7800   -5.9916
   101.000   -3.8033  -16.0751   -7.8100   -5.8565
   102.000   -3.7738  -15.2974   -7.8317   -5.7210
   103.000   -3.7427  -14.5811   -7.8450   -5.5851
   104.000   -3.7099  -13.9174   -7.8496   -5.4490
   105.000   -3.6757  -13.2989   -7.8454   -5.3130
   106.000   -3.6399  -12.7201   -7.8321   -5.1772
   107.000   -3.6026  -12.1761   -7.8098   -5.0417
   108.000   -3.5638  -11.6630   -7.7784   -4.9067
   109.000   -3.5236  -11.1777   -7.7381   -4.7723
   110.000   -3.4820  -10.7173   -7.6890   -4.6386
   111.000   -3.4391  -10.2795   -7.6312   -4.5057
   112.000   -3.3948   -9.8624   -7.5650   -4.3737
   113.000   -3.3493   -9.4640   -7.4908   -4.2428
   114.000   -3.3026   -9.0830   -7.4088   -4.1130
   115.000   -3.2547   -8.7181   -7.3195   -3.9844
   116.000   -3.2057   -8.3679   -7.2233   -3.8571
   117.000   -3.1557   -8.0316   -7.1206   -3.7312
   118.000   -3.1046   -7.7082   -7.0119   -3.6067
   119.000   -3.0525   -7.3969   -6.8977   -3.4837
   120.000   -2.9996   -7.0970   -6.7784   -3.3623
   121.000   -2.9458   -6.8077   -6.6546   -3.2424
   122.000   -2.8912   -6.5286   -6.5267   -3.1243
   123.000   -2.8359   -6.2590   -6.3953   -3.0079
   124.000   -2.7799   -5.9986   -6.2606   -2.8932
   125.000   -2.7233   -5.7468   -6.1233   -2.7804
   126.000   -2.6661   -5.5032   -5.9837   -2.6694
   127.000   -2.6085   -5.2676   -5.8423   -2.5603
   128.000   -2.5504   -5.0395   -5.6994   -2.4532
   129.000   -2.4920   -4.8186   -5.5554   -2.3480
   130.000   -2.4333   -4.6048   -5.4107   -2.2449
   131.000   -2.3743   -4.3977   -5.2655   -2.1438
   132.000   -2.3151   -4.1970   -5.1202   -2.0447
   133.000   -2.2558   -4.0026   -4.9750   -1.9478
   134.000   -2.1965   -3.8143   -4.8302   -1.8529
   135.000   -2.1372   -3.6318   -4.6860   -1.7603
   136.000   -2.0779   -3.4551   -4.5428   -1.6698
   137.000   -2.0187   -3.2839   -4.4005   -1.5815
   138.000   -1.9598   -3.1180   -4.2596   -1.4954
   139.000   -1.9010   -2.9575   -4.1200   -1.4116
   140.000   -1.8426   -2.8020   -3.9820   -1.3300
   141.000   -1.7845   -2.6516   -3.8457   -1.2507
   142.000   -1.7268   -2.5061   -3.7113   -1.1738
   143.000   -1.6696   -2.3653   -3.5788   -1.0991
   144.000   -1.6129   -2.2293   -3.4483   -1.0268
   145.000   -1.5567   -2.0979   -3.3201   -0.9568
   146.000   -1.5012   -1.9710   -3.1940   -0.8892
   147.000   -1.4463   -1.8485   -3.0703   -0.8240
   148.000   -1.3921   -1.7304   -2.9489   -0.7612
   149.000   -1.3387   -1.6166   -2.8300   -0.7008
   150.000   -1.2861   -1.5071   -2.7136   -0.6429
   151.000   -1.2343   -1.4017   -2.5998   -0.5873
   152.000   -1.1835   -1.3005   -2.4885   -0.5342
   153.000   -1.1335   -1.2033   -2.3799   -0.4836
   154.000   -1.0845   -1.1102   -2.2739   -0.4355
   155.000   -1.0366   -1.0211   -2.1707   -0.3898
   156.000   -0.9896   -0.9358   -2.0701   -0.3466
   157.000   -0.9438   -0.8545   -1.9723   -0.3059
   158.000   -0.8990   -0.7771   -1.8773   -0.2678
   159.000   -0.8554   -0.7035   -1.7851   -0.2321
   160.000   -0.8130   -0.6337   -1.6957   -0.1990
   161.000   -0.7717   -0.5676   -1.6091   -0.1684
   162.000   -0.7317   -0.5053   -1.5253   -0.1403
   163.000   -0.6930   -0.4467   -1.4443   -0.1148
   164.000   -0.6555   -0.3918   -1.3662   -0.0918
   165.000   -0.6193   -0.3405   -1.2909   -0.0714
   166.000   -0.5845   -0.2930   -1.2185   -0.0535
   167.000   -0.5509   -0.2490   -1.1489   -0.0382
   168.000   -0.5188   -0.2087   -1.0822   -0.0254
   169.000   -0.4880   -0.1719   -1.0183   -0.0152
   170.000   -0.4586   -0.1387   -0.9573   -0.0076
   171.000   -0.4306   -0.1092   -0.8991   -0.0025
   172.000   -0.4041   -0.0831   -0.8437    0.0000
   173.000   -0.3789   -0.0607   -0.7912   -0.0001
   174.000   -0.3552   -0.0417   -0.7415   -0.0027
   175.000   -0.3330   -0.0263   -0.6947   -0.0079
   176.000   -0.3121   -0.0145   -0.6506   -0.0156
   177.000   -0.2928   -0.0061   -0.6094   -0.0260
   178.000   -0.2749   -0.0013   -0.5709   -0.0388
   179.000   -0.2585    0.0000   -0.5353   -0.0542
   180.000   -0.2435   -0.0022   -0.5024   -0.0722
   181.000   -0.2301   -0.0079   -0.4723   -0.0927
   182.000   -0.2180   -0.0172   -0.4450   -0.1157
   183.000   -0.2075   -0.0300   -0.4204   -0.1413
   184.000   -0.1984   -0.0462   -0.3985   -0.1693
   185.000   -0.1907   -0.0661   -0.3794   -0.1999
   186.000   -0.1845   -0.0894   -0.3630   -0.2330
   187.000   -0.1798   -0.1163   -0.3493   -0.2685
   188.000   -0.1765   -0.1467   -0.3382   -0.3065
   189.000   -0.1746   -0.1807   -0.3298   -0.3470
   190.000   -0.1741   -0.2182   -0.3241   -0.3899
   191.000   -0.1750   -0.2593   -0.3210   -0.4352
   192.000   -0.1773   -0.3040   -0.3205   -0.4829
   193.000   -0.1809   -0.3523   -0.3227   -0.5330
   194.000   -0.1860   -0.4043   -0.3274   -0.5855
   195.000   -0.1923   -0.4598   -0.3346   -0.6403
   196.000   -0.2000   -0.5190   -0.3445   -0.6974
   197.000   -0.2090   -0.5819   -0.3568   -0.7569
   198.000   -0.2192   -0.6485   -0.3717   -0.8185
   199.000   -0.2308   -0.7188   -0.3890   -0.8824
   200.000   -0.2435   -0.7928   -0.4088   -0.9485
   201.000   -0.2575   -0.8706   -0.4310   -1.0168
   202.000   -0.2726   -0.9522   -0.4557   -1.0871
   203.000   -0.2890   -1.0377   -0.4827   -1.1596
   204.000   -0.3064   -1.1270   -0.5121   -1.2341
   205.000   -0.3250   -1.2202   -0.5439   -1.3106
   206.000   -0.3446   -1.3173   -0.5780   -1.3890
   207.000   -0.3654   -1.4185   -0.6144   -1.4694
   208.000   -0.3871   -1.5236   -0.6530   -1.5515
   209.000   -0.4098   -1.6329   -0.6939   -1.6355
   210.000   -0.4335   -1.7462   -0.7370   -1.7212
   211.000   -0.4581   -1.8638   -0.7822   -1.8085
   212.000   -0.4837   -1.9856   -0.8296   -1.8975
   213.000   -0.5101   -2.1117   -0.8791   -1.9879
   214.000   -0.5373   -2.2422   -0.9307   -2.0798
   215.000   -0.5653   -2.3771   -0.9843   -2.1731
   216.000   -0.5941   -2.5165   -1.0400   -2.2676
   217.000   -0.6236   -2.6606   -1.0976   -2.3633
   218.000   -0.6537   -2.8093   -1.1571   -2.4601
   219.000   -0.6846   -2.9629   -1.2186   -2.5579
   220.000   -0.7160   -3.1213   -1.2819   -2.6565
   221.000   -0.7480   -3.2848   -1.3470   -2.7559
   222.000   -0.7806   -3.4534   -1.4138   -2.8560
   223.000   -0.8136   -3.6273   -1.4824   -2.9565
   224.000   -0.8471   -3.8065   -1.5527   -3.0575
   225.000   -0.8810   -3.9913   -1.6246   -3.1587
   226.000   -0.9153   -4.1818   -1.6981   -3.2600
   227.000   -0.9500   -4.3782   -1.7732   -3.3613
   228.000   -0.9849   -4.5807   -1.8497   -3.4624
   229.000   -1.0201   -4.7895   -1.9276   -3.5632
   230.000   -1.0555   -5.0048   -2.0069   -3.6634
   231.000   -1.0911   -5.2268   -2.0875   -3.7629
   232.000   -1.1268   -5.4558   -2.1694   -3.8617
   233.000   -1.1626   -5.6922   -2.2525   -3.9593
   234.000   -1.1984   -5.9361   -2.3367   -4.0558
   235.000   -1.2343   -6.1880   -2.4220   -4.1508
   236.000   -1.2702   -6.4483   -2.5082   -4.2442
   237.000   -1.3059   -6.7173   -2.5954   -4.3359
   238.000   -1.3416   -6.9955   -2.6835   -4.4256
   239.000   -1.3772   -7.2834   -2.7723   -4.5130
   240.000   -1.4125   -7.5815   -2.8618   -4.5982
   241.000   -1.4477   -7.8905   -2.9520   -4.6807
   242.000   -1.4826   -8.2111   -3.0427   -4.7605
   243.000   -1.5172   -8.5440   -3.1338   -4.8374
   244.000   -1.5514   -8.8901   -3.2253   -4.9111
   245.000   -1.5853   -9.2504   -3.3172   -4.9816
   246.000   -1.6189   -9.6258   -3.4092   -5.0486
   247.000   -1.6519  -10.0177   -3.5013   -5.1119
   248.000   -1.6846  -10.4275   -3.5934   -5.1716
   249.000   -1.7167  -10.8568   -3.6854   -5.2273
   250.000   -1.7483  -11.3074   -3.7772   -5.2790
   251.000   -1.7793  -11.7816   -3.8686   -5.3265
   252.000   -1.8098  -12.2817   -3.9597   -5.3699
   253.000   -1.8396  -12.8109   -4.0502   -5.4089
   254.000   -1.8689  -13.3726   -4.1401   -5.4436
   255.000   -1.8974  -13.9711   -4.2292   -5.4738
   256.000   -1.9253  -14.6115   -4.3175   -5.4996
   257.000   -1.9524  -15.3004   -4.4047   -5.5209
   258.000   -1.9788  -16.0456   -4.4909   -5.5378
   259.000   -2.0044  -16.8573   -4.5757   -5.5503
   260.000   -2.0293  -17.7488   -4.6592   -5.5583
   261.000   -2.0534  -18.7378   -4.7412   -5.5620
   262.000   -2.0766  -19.8487   -4.8216   -5.5615
   263.000   -2.0991  -21.1164   -4.9001   -5.5567
   264.000   -2.1207  -22.5934   -4.9768   -5.5479
   265.000   -2.1414  -24.3639   -5.0515   -5.5350
   266.000   -2.1612  -26.5760   -5.1240   -5.5182
   267.000   -2.1802  -29.5277   -5.1942   -5.4978
   268.000   -2.1983  -30.0000   -5.2619   -5.4736
   269.000   -2.2155  -30.0000   -5.3271   -5.4461
   270.000   -2.2318  -30.0000   -5.3897   -5.4152
   271.000   -2.2471  -30.0000   -5.4494   -5.3811
   272.000   -2.2616  -29.4208   -5.5062   -5.3440
   273.000   -2.2751  -26.5744   -5.5599   -5.3040
   274.000   -2.2877  -24.4408   -5.6105   -5.2614
   275.000   -2.2994  -22.7362   -5.6578   -5.2162
   276.000   -2.3102  -21.3182   -5.7017   -5.1686
   277.000   -2.3200  -20.1052   -5.7422   -5.1189
   278.000   -2.3289  -19.0462   -5.7791   -5.0670
   279.000   -2.3369  -18.1070   -5.8123   -5.0133
   280.000   -2.3440  -17.2637   -5.8419   -4.9578
   281.000   -2.3502  -16.4990   -5.8676   -4.9007
   282.000   -2.3555  -15.7998   -5.8896   -4.8422
   283.000   -2.3599  -15.1560   -5.9076   -4.7824
   284.000   -2.3635  -14.5598   -5.9217   -4.7214
   285.000   -2.3661  -14.0047   -5.9319   -4.6593
   286.000   -2.3679  -13.4858   -5.9381   -4.5964
   287.000   -2.3689  -12.9987   -5.9403   -4.5327
   288.000   -2.3691  -12.5399   -5.9386   -4.4683
   289.000   -2.3684  -12.1065   -5.9329   -4.4033
   290.000   -2.3670  -11.6960   -5.9233   -4.3379
   291.000   -2.3647  -11.3061   -5.9098   -4.2722
   292.000   -2.3617  -10.9351   -5.8924   -4.2063
   293.000   -2.3580  -10.5813   -5.8713   -4.1402
   294.000   -2.3536  -10.2434   -5.8465   -4.0740
   295.000   -2.3484   -9.9200   -5.8181   -4.0080
   296.000   -2.3426   -9.6100   -5.7861   -3.9421
   297.000   -2.3361   -9.3126   -5.7506   -3.8763
   298.000   -2.3290   -9.0269   -5.7119   -3.8109
   299.000   -2.3212   -8.7520   -5.6699   -3.7459
   300.000   -2.3129   -8.4873   -5.6247   -3.6813
   301.000   -2.3040   -8.2323   -5.5766   -3.6173
   302.000   -2.2946   -7.9862   -5.5256   -3.5538
   303.000   -2.2847   -7.7486   -5.4719   -3.4910
   304.000   -2.2743   -7.5191   -5.4155   -3.4289
   305.000   -2.2634   -7.2973   -5.3568   -3.3676
   306.000   -2.2521   -7.0827   -5.2956   -3.3072
   307.000   -2.2404   -6.8750   -5.2324   -3.2476
   308.000   -2.2284   -6.6740   -5.1671   -3.1890
   309.000   -2.2160   -6.4793   -5.0999   -3.1313
   310.000   -2.2033   -6.2906   -5.0310   -3.0748
   311.000   -2.1903   -6.1078   -4.9605   -3.0193
   312.000   -2.1771   -5.9306   -4.8885   -2.9650
   313.000   -2.1636   -5.7587   -4.8153   -2.9119
   314.000   -2.1500   -5.5921   -4.7409   -2.8600
   315.000   -2.1362   -5.4306   -4.6654   -2.8094
   316.000   -2.1223   -5.2739   -4.5891   -2.7602
   317.000   -2.1083   -5.1220   -4.5121   -2.7123
   318.000   -2.0943   -4.9746   -4.4344   -2.6658
   319.000   -2.0802   -4.8318   -4.3563   -2.6208
   320.000   -2.0662   -4.6933   -4.2778   -2.5773
   321.000   -2.0522   -4.5591   -4.1990   -2.5353
   322.000   -2.0383   -4.4291   -4.1202   -2.4949
   323.000   -2.0244   -4.3032   -4.0413   -2.4561
   324.000   -2.0108   -4.1812   -3.9626   -2.4190
   325.000   -1.9973   -4.0632   -3.8841   -2.3835
   326.000   -1.9840   -3.9490   -3.8059   -2.3497
   327.000   -1.9709   -3.8387   -3.7282   -2.3177
   328.000   -1.9581   -3.7320   -3.6510   -2.2874
   329.000   -1.9457   -3.6290   -3.5744   -2.2590
   330.000   -1.9335   -3.5297   -3.4985   -2.2324
   331.000   -1.9218   -3.4339   -3.4234   -2.2076
   332.000   -1.9104   -3.3416   -3.3492   -2.1848
   333.000   -1.8995   -3.2529   -3.2760   -2.1639
   334.000   -1.8890   -3.1676   -3.2038   -2.1449
   335.000   -1.8790   -3.0857   -3.1327   -2.1279
   336.000   -1.8695   -3.0072   -3.0628   -2.1130
   337.000   -1.8606   -2.9320   -2.9942   -2.1000
   338.000   -1.8523   -2.8602   -2.9268   -2.0892
   339.000   -1.8445   -2.7917   -2.8609   -2.0804
   340.000   -1.8374   -2.7264   -2.7963   -2.0737
   341.000   -1.8309   -2.6644   -2.7333   -2.0691
   342.000   -1.8252   -2.6057   -2.6717   -2.0667
   343.000   -1.8201   -2.5502   -2.6118   -2.0665
   344.000   -1.8157   -2.4979   -2.5535   -2.0685
   345.000   -1.8121   -2.4488   -2.4968   -2.0726
   346.000   -1.8093   -2.4028   -2.4419   -2.0791
   347.000   -1.8072   -2.3600   -2.3887   -2.0877
   348.000   -1.8060   -2.3204   -2.3374   -2.0987
   349.000   -1.8056   -2.2839   -2.2878   -2.1119
   350.000   -1.8060   -2.2505   -2.2401   -2.1274
   351.000   -1.8073   -2.2203   -2.1943   -2.1452
   352.000   -1.8095   -2.1932   -2.1504   -2.1654
   353.000   -1.8126   -2.1692   -2.1084   -2.1879
   354.000   -1.8166   -2.1482   -2.0684   -2.2128
   355.000   -1.8215   -2.1304   -2.0304   -2.2400
   356.000   -1.8273   -2.1157   -1.9945   -2.2696
   357.000   -1.8340   -2.1040   -1.9605   -2.3016
   358.000   -1.8417   -2.0955   -1.9286   -2.3360
   359.000   -1.8504   -2.0900   -1.8987   -2.3728
   360.000   -1.8600   -2.0876   -1.8709   -2.4120




  É” = 0.000 Åãplane
   É∆(deg)       EÉ”       EÉ∆       ER        EL 
     0.000   -2.4119   -2.7415   -2.4830   -2.9756
     1.000   -2.4222   -2.7425   -2.4607   -3.0131
     2.000   -2.4337   -2.7467   -2.4406   -3.0531
     3.000   -2.4464   -2.7540   -2.4228   -3.0957
     4.000   -2.4603   -2.7645   -2.4071   -3.1408
     5.000   -2.4755   -2.7782   -2.3937   -3.1884
     6.000   -2.4918   -2.7951   -2.3826   -3.2386
     7.000   -2.5094   -2.8151   -2.3736   -3.2914
     8.000   -2.5282   -2.8383   -2.3669   -3.3467
     9.000   -2.5483   -2.8646   -2.3625   -3.4045
    10.000   -2.5695   -2.8942   -2.3602   -3.4649
    11.000   -2.5919   -2.9269   -2.3602   -3.5277
    12.000   -2.6155   -2.9627   -2.3625   -3.5931
    13.000   -2.6403   -3.0018   -2.3670   -3.6610
    14.000   -2.6662   -3.0440   -2.3737   -3.7314
    15.000   -2.6932   -3.0894   -2.3827   -3.8042
    16.000   -2.7214   -3.1380   -2.3938   -3.8795
    17.000   -2.7507   -3.1898   -2.4072   -3.9572
    18.000   -2.7811   -3.2448   -2.4228   -4.0373
    19.000   -2.8125   -3.3030   -2.4406   -4.1199
    20.000   -2.8449   -3.3644   -2.4605   -4.2047
    21.000   -2.8784   -3.4291   -2.4827   -4.2919
    22.000   -2.9128   -3.4970   -2.5070   -4.3814
    23.000   -2.9482   -3.5682   -2.5335   -4.4731
    24.000   -2.9845   -3.6427   -2.5621   -4.5671
    25.000   -3.0218   -3.7205   -2.5928   -4.6632
    26.000   -3.0598   -3.8016   -2.6257   -4.7615
    27.000   -3.0987   -3.8860   -2.6607   -4.8618
    28.000   -3.1383   -3.9738   -2.6977   -4.9642
    29.000   -3.1787   -4.0650   -2.7369   -5.0685
    30.000   -3.2198   -4.1597   -2.7781   -5.1747
    31.000   -3.2616   -4.2578   -2.8213   -5.2827
    32.000   -3.3040   -4.3595   -2.8666   -5.3925
    33.000   -3.3469   -4.4647   -2.9140   -5.5040
    34.000   -3.3904   -4.5735   -2.9633   -5.6171
    35.000   -3.4344   -4.6860   -3.0146   -5.7316
    36.000   -3.4788   -4.8022   -3.0679   -5.8476
    37.000   -3.5236   -4.9222   -3.1231   -5.9648
    38.000   -3.5687   -5.0461   -3.1803   -6.0832
    39.000   -3.6141   -5.1739   -3.2394   -6.2026
    40.000   -3.6597   -5.3057   -3.3005   -6.3230
    41.000   -3.7055   -5.4417   -3.3634   -6.4441
    42.000   -3.7514   -5.5818   -3.4282   -6.5659
    43.000   -3.7974   -5.7264   -3.4949   -6.6881
    44.000   -3.8434   -5.8753   -3.5634   -6.8106
    45.000   -3.8893   -6.0289   -3.6337   -6.9332
    46.000   -3.9351   -6.1872   -3.7058   -7.0557
    47.000   -3.9808   -6.3503   -3.7798   -7.1779
    48.000   -4.0262   -6.5186   -3.8555   -7.2996
    49.000   -4.0713   -6.6921   -3.9330   -7.4205
    50.000   -4.1161   -6.8711   -4.0122   -7.5403
    51.000   -4.1604   -7.0558   -4.0931   -7.6589
    52.000   -4.2043   -7.2465   -4.1758   -7.7760
    53.000   -4.2476   -7.4433   -4.2601   -7.8911
    54.000   -4.2904   -7.6467   -4.3460   -8.0041
    55.000   -4.3325   -7.8569   -4.4336   -8.1146
    56.000   -4.3738   -8.0743   -4.5228   -8.2223
    57.000   -4.4144   -8.2993   -4.6136   -8.3269
    58.000   -4.4541   -8.5324   -4.7060   -8.4279
    59.000   -4.4929   -8.7739   -4.7998   -8.5250
    60.000   -4.5307   -9.0245   -4.8952   -8.6179
    61.000   -4.5674   -9.2848   -4.9920   -8.7061
    62.000   -4.6031   -9.5553   -5.0902   -8.7894
    63.000   -4.6376   -9.8368   -5.1897   -8.8673
    64.000   -4.6709  -10.1302   -5.2906   -8.9394
    65.000   -4.7029  -10.4363   -5.3927   -9.0055
    66.000   -4.7335  -10.7561   -5.4961   -9.0651
    67.000   -4.7628  -11.0909   -5.6005   -9.1179
    68.000   -4.7905  -11.4418   -5.7061   -9.1637
    69.000   -4.8168  -11.8106   -5.8126   -9.2020
    70.000   -4.8415  -12.1987   -5.9199   -9.2328
    71.000   -4.8646  -12.6083   -6.0281   -9.2557
    72.000   -4.8860  -13.0416   -6.1369   -9.2707
    73.000   -4.9057  -13.5014   -6.2463   -9.2774
    74.000   -4.9236  -13.9907   -6.3561   -9.2759
    75.000   -4.9397  -14.5135   -6.4661   -9.2661
    76.000   -4.9539  -15.0742   -6.5763   -9.2479
    77.000   -4.9662  -15.6785   -6.6863   -9.2214
    78.000   -4.9765  -16.3333   -6.7960   -9.1867
    79.000   -4.9849  -17.0472   -6.9052   -9.1439
    80.000   -4.9913  -17.8312   -7.0137   -9.0931
    81.000   -4.9955  -18.7000   -7.1211   -9.0346
    82.000   -4.9977  -19.6731   -7.2273   -8.9686
    83.000   -4.9978  -20.7776   -7.3318   -8.8953
    84.000   -4.9957  -22.0527   -7.4344   -8.8150
    85.000   -4.9915  -23.5582   -7.5347   -8.7281
    86.000   -4.9850  -25.3911   -7.6323   -8.6348
    87.000   -4.9764  -27.7250   -7.7268   -8.5356
    88.000   -4.9655  -30.0000   -7.8179   -8.4307
    89.000   -4.9524  -30.0000   -7.9050   -8.3206
    90.000   -4.9371  -30.0000   -7.9878   -8.2056
    91.000   -4.9195  -30.0000   -8.0657   -8.0861
    92.000   -4.8997  -30.0000   -8.1383   -7.9625
    93.000   -4.8776  -28.1149   -8.2050   -7.8350
    94.000   -4.8533  -25.5779   -8.2655   -7.7041
    95.000   -4.8268  -23.5950   -8.3192   -7.5701
    96.000   -4.7981  -21.9676   -8.3657   -7.4333
    97.000   -4.7672  -20.5871   -8.4045   -7.2941
    98.000   -4.7341  -19.3880   -8.4353   -7.1528
    99.000   -4.6988  -18.3276   -8.4575   -7.0096
   100.000   -4.6615  -17.3768   -8.4710   -6.8649
   101.000   -4.6220  -16.5148   -8.4754   -6.7188
   102.000   -4.5805  -15.7263   -8.4706   -6.5717
   103.000   -4.5370  -14.9994   -8.4562   -6.4238
   104.000   -4.4916  -14.3252   -8.4324   -6.2753
   105.000   -4.4442  -13.6966   -8.3989   -6.1265
   106.000   -4.3949  -13.1076   -8.3560   -5.9774
   107.000   -4.3438  -12.5537   -8.3036   -5.8284
   108.000   -4.2909  -12.0308   -8.2420   -5.6796
   109.000   -4.2363  -11.5357   -8.1715   -5.5311
   110.000   -4.1801  -11.0657   -8.0922   -5.3832
   111.000   -4.1223  -10.6185   -8.0047   -5.2358
   112.000   -4.0629  -10.1919   -7.9092   -5.0893
   113.000   -4.0021   -9.7843   -7.8063   -4.9437
   114.000   -3.9399   -9.3941   -7.6964   -4.7991
   115.000   -3.8764   -9.0201   -7.5801   -4.6556
   116.000   -3.8116   -8.6610   -7.4577   -4.5134
   117.000   -3.7456   -8.3159   -7.3299   -4.3725
   118.000   -3.6786   -7.9837   -7.1971   -4.2330
   119.000   -3.6105   -7.6638   -7.0600   -4.0950
   120.000   -3.5415   -7.3553   -6.9190   -3.9586
   121.000   -3.4716   -7.0577   -6.7745   -3.8238
   122.000   -3.4009   -6.7702   -6.6272   -3.6908
   123.000   -3.3295   -6.4925   -6.4774   -3.5596
   124.000   -3.2575   -6.2240   -6.3256   -3.4302
   125.000   -3.1849   -5.9642   -6.1722   -3.3027
   126.000   -3.1118   -5.7129   -6.0177   -3.1771
   127.000   -3.0384   -5.4695   -5.8623   -3.0536
   128.000   -2.9646   -5.2339   -5.7065   -2.9321
   129.000   -2.8906   -5.0056   -5.5505   -2.8127
   130.000   -2.8164   -4.7844   -5.3946   -2.6954
   131.000   -2.7422   -4.5701   -5.2392   -2.5803
   132.000   -2.6679   -4.3624   -5.0845   -2.4674
   133.000   -2.5937   -4.1610   -4.9307   -2.3568
   134.000   -2.5196   -3.9659   -4.7781   -2.2484
   135.000   -2.4458   -3.7768   -4.6267   -2.1423
   136.000   -2.3722   -3.5935   -4.4769   -2.0386
   137.000   -2.2990   -3.4159   -4.3288   -1.9372
   138.000   -2.2263   -3.2438   -4.1825   -1.8382
   139.000   -2.1540   -3.0772   -4.0381   -1.7416
   140.000   -2.0822   -2.9158   -3.8958   -1.6475
   141.000   -2.0111   -2.7595   -3.7557   -1.5558
   142.000   -1.9407   -2.6083   -3.6180   -1.4666
   143.000   -1.8710   -2.4620   -3.4826   -1.3799
   144.000   -1.8021   -2.3206   -3.3496   -1.2957
   145.000   -1.7340   -2.1839   -3.2192   -1.2140
   146.000   -1.6669   -2.0519   -3.0914   -1.1349
   147.000   -1.6008   -1.9245   -2.9662   -1.0583
   148.000   -1.5356   -1.8016   -2.8438   -0.9844
   149.000   -1.4716   -1.6832   -2.7241   -0.9130
   150.000   -1.4086   -1.5692   -2.6072   -0.8442
   151.000   -1.3468   -1.4594   -2.4932   -0.7781
   152.000   -1.2863   -1.3540   -2.3820   -0.7146
   153.000   -1.2270   -1.2528   -2.2737   -0.6537
   154.000   -1.1689   -1.1558   -2.1683   -0.5955
   155.000   -1.1123   -1.0629   -2.0659   -0.5400
   156.000   -1.0569   -0.9741   -1.9664   -0.4871
   157.000   -1.0030   -0.8894   -1.8699   -0.4370
   158.000   -0.9506   -0.8087   -1.7763   -0.3895
   159.000   -0.8996   -0.7320   -1.6858   -0.3447
   160.000   -0.8501   -0.6592   -1.5983   -0.3026
   161.000   -0.8022   -0.5904   -1.5138   -0.2633
   162.000   -0.7558   -0.5254   -1.4323   -0.2267
   163.000   -0.7110   -0.4643   -1.3539   -0.1928
   164.000   -0.6678   -0.4071   -1.2785   -0.1616
   165.000   -0.6262   -0.3537   -1.2061   -0.1332
   166.000   -0.5863   -0.3041   -1.1367   -0.1075
   167.000   -0.5481   -0.2583   -1.0704   -0.0845
   168.000   -0.5116   -0.2163   -1.0071   -0.0643
   169.000   -0.4768   -0.1781   -0.9468   -0.0469
   170.000   -0.4437   -0.1436   -0.8895   -0.0322
   171.000   -0.4123   -0.1128   -0.8353   -0.0202
   172.000   -0.3827   -0.0857   -0.7841   -0.0111
   173.000   -0.3548   -0.0624   -0.7358   -0.0046
   174.000   -0.3287   -0.0428   -0.6906   -0.0009
   175.000   -0.3043   -0.0268   -0.6484    0.0000
   176.000   -0.2818   -0.0146   -0.6091   -0.0018
   177.000   -0.2610   -0.0060   -0.5728   -0.0064
   178.000   -0.2420   -0.0012   -0.5395   -0.0137
   179.000   -0.2248    0.0000   -0.5092   -0.0237
   180.000   -0.2093   -0.0025   -0.4817   -0.0365
   181.000   -0.1957   -0.0087   -0.4573   -0.0520
   182.000   -0.1838   -0.0185   -0.4357   -0.0702
   183.000   -0.1737   -0.0321   -0.4171   -0.0911
   184.000   -0.1653   -0.0493   -0.4013   -0.1148
   185.000   -0.1588   -0.0703   -0.3884   -0.1411
   186.000   -0.1539   -0.0949   -0.3785   -0.1701
   187.000   -0.1509   -0.1232   -0.3713   -0.2018
   188.000   -0.1495   -0.1553   -0.3670   -0.2362
   189.000   -0.1499   -0.1910   -0.3655   -0.2732
   190.000   -0.1520   -0.2305   -0.3669   -0.3129
   191.000   -0.1557   -0.2737   -0.3710   -0.3551
   192.000   -0.1612   -0.3207   -0.3779   -0.4000
   193.000   -0.1683   -0.3715   -0.3876   -0.4475
   194.000   -0.1770   -0.4260   -0.4000   -0.4975
   195.000   -0.1874   -0.4844   -0.4151   -0.5501
   196.000   -0.1993   -0.5465   -0.4329   -0.6052
   197.000   -0.2129   -0.6126   -0.4534   -0.6628
   198.000   -0.2280   -0.6824   -0.4766   -0.7229
   199.000   -0.2446   -0.7562   -0.5023   -0.7855
   200.000   -0.2627   -0.8338   -0.5307   -0.8504
   201.000   -0.2823   -0.9154   -0.5617   -0.9178
   202.000   -0.3034   -1.0010   -0.5953   -0.9875
   203.000   -0.3259   -1.0906   -0.6313   -1.0595
   204.000   -0.3497   -1.1842   -0.6699   -1.1338
   205.000   -0.3749   -1.2819   -0.7110   -1.2104
   206.000   -0.4015   -1.3837   -0.7545   -1.2892
   207.000   -0.4293   -1.4896   -0.8004   -1.3701
   208.000   -0.4584   -1.5997   -0.8488   -1.4531
   209.000   -0.4888   -1.7141   -0.8995   -1.5382
   210.000   -0.5203   -1.8328   -0.9525   -1.6253
   211.000   -0.5530   -1.9558   -1.0078   -1.7144
   212.000   -0.5868   -2.0832   -1.0653   -1.8053
   213.000   -0.6216   -2.2152   -1.1251   -1.8981
   214.000   -0.6575   -2.3516   -1.1871   -1.9926
   215.000   -0.6944   -2.4927   -1.2512   -2.0888
   216.000   -0.7322   -2.6384   -1.3174   -2.1866
   217.000   -0.7710   -2.7889   -1.3857   -2.2860
   218.000   -0.8106   -2.9443   -1.4560   -2.3867
   219.000   -0.8511   -3.1047   -1.5282   -2.4889
   220.000   -0.8923   -3.2701   -1.6024   -2.5922
   221.000   -0.9342   -3.4406   -1.6784   -2.6968
   222.000   -0.9769   -3.6165   -1.7563   -2.8024
   223.000   -1.0202   -3.7978   -1.8359   -2.9089
   224.000   -1.0641   -3.9847   -1.9172   -3.0162
   225.000   -1.1085   -4.1772   -2.0002   -3.1243
   226.000   -1.1534   -4.3757   -2.0848   -3.2329
   227.000   -1.1988   -4.5802   -2.1710   -3.3419
   228.000   -1.2446   -4.7909   -2.2586   -3.4513
   229.000   -1.2907   -5.0081   -2.3476   -3.5608
   230.000   -1.3372   -5.2319   -2.4380   -3.6703
   231.000   -1.3839   -5.4626   -2.5296   -3.7796
   232.000   -1.4308   -5.7005   -2.6225   -3.8886
   233.000   -1.4779   -5.9459   -2.7164   -3.9970
   234.000   -1.5250   -6.1990   -2.8114   -4.1049
   235.000   -1.5723   -6.4602   -2.9074   -4.2118
   236.000   -1.6195   -6.7300   -3.0043   -4.3177
   237.000   -1.6668   -7.0086   -3.1020   -4.4224
   238.000   -1.7139   -7.2966   -3.2003   -4.5256
   239.000   -1.7609   -7.5945   -3.2994   -4.6273
   240.000   -1.8077   -7.9027   -3.3989   -4.7271
   241.000   -1.8543   -8.2221   -3.4989   -4.8249
   242.000   -1.9006   -8.5531   -3.5992   -4.9204
   243.000   -1.9466   -8.8966   -3.6998   -5.0135
   244.000   -1.9922   -9.2535   -3.8004   -5.1040
   245.000   -2.0374   -9.6248   -3.9011   -5.1917
   246.000   -2.0821  -10.0114   -4.0018   -5.2764
   247.000   -2.1264  -10.4148   -4.1022   -5.3579
   248.000   -2.1701  -10.8362   -4.2023   -5.4360
   249.000   -2.2132  -11.2774   -4.3020   -5.5106
   250.000   -2.2557  -11.7402   -4.4011   -5.5814
   251.000   -2.2975  -12.2268   -4.4996   -5.6484
   252.000   -2.3386  -12.7398   -4.5972   -5.7113
   253.000   -2.3790  -13.2821   -4.6940   -5.7702
   254.000   -2.4185  -13.8575   -4.7897   -5.8248
   255.000   -2.4573  -14.4703   -4.8842   -5.8750
   256.000   -2.4953  -15.1257   -4.9774   -5.9208
   257.000   -2.5323  -15.8304   -5.0691   -5.9622
   258.000   -2.5685  -16.5924   -5.1593   -5.9989
   259.000   -2.6037  -17.4224   -5.2478   -6.0311
   260.000   -2.6379  -18.3339   -5.3344   -6.0587
   261.000   -2.6711  -19.3455   -5.4190   -6.0818
   262.000   -2.7034  -20.4825   -5.5015   -6.1002
   263.000   -2.7345  -21.7814   -5.5818   -6.1141
   264.000   -2.7647  -23.2977   -5.6598   -6.1235
   265.000   -2.7937  -25.1211   -5.7352   -6.1285
   266.000   -2.8216  -27.4119   -5.8080   -6.1292
   267.000   -2.8484  -30.0000   -5.8780   -6.1256
   268.000   -2.8741  -30.0000   -5.9452   -6.1178
   269.000   -2.8986  -30.0000   -6.0094   -6.1060
   270.000   -2.9220  -30.0000   -6.0704   -6.0904
   271.000   -2.9442  -30.0000   -6.1283   -6.0709
   272.000   -2.9652  -29.6163   -6.1829   -6.0479
   273.000   -2.9850  -26.8824   -6.2340   -6.0213
   274.000   -3.0036  -24.8167   -6.2817   -5.9915
   275.000   -3.0211  -23.1588   -6.3258   -5.9584
   276.000   -3.0373  -21.7756   -6.3662   -5.9224
   277.000   -3.0523  -20.5901   -6.4029   -5.8834
   278.000   -3.0661  -19.5537   -6.4359   -5.8418
   279.000   -3.0787  -18.6337   -6.4650   -5.7977
   280.000   -3.0901  -17.8071   -6.4902   -5.7512
   281.000   -3.1003  -17.0572   -6.5115   -5.7025
   282.000   -3.1094  -16.3712   -6.5288   -5.6517
   283.000   -3.1172  -15.7393   -6.5422   -5.5990
   284.000   -3.1239  -15.1540   -6.5517   -5.5446
   285.000   -3.1294  -14.6090   -6.5571   -5.4885
   286.000   -3.1338  -14.0993   -6.5587   -5.4310
   287.000   -3.1371  -13.6207   -6.5562   -5.3722
   288.000   -3.1392  -13.1699   -6.5499   -5.3121
   289.000   -3.1402  -12.7438   -6.5398   -5.2510
   290.000   -3.1402  -12.3401   -6.5258   -5.1890
   291.000   -3.1391  -11.9566   -6.5081   -5.1261
   292.000   -3.1369  -11.5915   -6.4866   -5.0625
   293.000   -3.1337  -11.2432   -6.4616   -4.9983
   294.000   -3.1295  -10.9102   -6.4330   -4.9337
   295.000   -3.1243  -10.5915   -6.4010   -4.8687
   296.000   -3.1182  -10.2859   -6.3656   -4.8034
   297.000   -3.1112   -9.9924   -6.3269   -4.7379
   298.000   -3.1033   -9.7103   -6.2851   -4.6724
   299.000   -3.0945   -9.4387   -6.2403   -4.6068
   300.000   -3.0848   -9.1769   -6.1926   -4.5414
   301.000   -3.0744   -8.9245   -6.1420   -4.4761
   302.000   -3.0631   -8.6808   -6.0888   -4.4111
   303.000   -3.0511   -8.4453   -6.0330   -4.3464
   304.000   -3.0385   -8.2176   -5.9749   -4.2821
   305.000   -3.0251   -7.9973   -5.9144   -4.2184
   306.000   -3.0111   -7.7840   -5.8518   -4.1552
   307.000   -2.9965   -7.5774   -5.7872   -4.0926
   308.000   -2.9813   -7.3772   -5.7207   -4.0307
   309.000   -2.9656   -7.1831   -5.6525   -3.9696
   310.000   -2.9494   -6.9948   -5.5827   -3.9093
   311.000   -2.9327   -6.8122   -5.5114   -3.8499
   312.000   -2.9156   -6.6350   -5.4389   -3.7914
   313.000   -2.8982   -6.4630   -5.3651   -3.7340
   314.000   -2.8804   -6.2960   -5.2903   -3.6776
   315.000   -2.8623   -6.1340   -5.2146   -3.6223
   316.000   -2.8440   -5.9767   -5.1380   -3.5682
   317.000   -2.8255   -5.8239   -5.0609   -3.5153
   318.000   -2.8068   -5.6757   -4.9832   -3.4636
   319.000   -2.7880   -5.5318   -4.9051   -3.4133
   320.000   -2.7691   -5.3922   -4.8267   -3.3644
   321.000   -2.7502   -5.2568   -4.7481   -3.3169
   322.000   -2.7313   -5.1254   -4.6696   -3.2709
   323.000   -2.7124   -4.9981   -4.5910   -3.2264
   324.000   -2.6937   -4.8747   -4.5127   -3.1834
   325.000   -2.6750   -4.7551   -4.4346   -3.1421
   326.000   -2.6566   -4.6394   -4.3570   -3.1024
   327.000   -2.6384   -4.5274   -4.2798   -3.0644
   328.000   -2.6204   -4.4190   -4.2032   -3.0281
   329.000   -2.6028   -4.3144   -4.1273   -2.9936
   330.000   -2.5855   -4.2133   -4.0521   -2.9608
   331.000   -2.5686   -4.1158   -3.9779   -2.9300
   332.000   -2.5522   -4.0218   -3.9045   -2.9010
   333.000   -2.5362   -3.9313   -3.8322   -2.8740
   334.000   -2.5207   -3.8443   -3.7610   -2.8489
   335.000   -2.5059   -3.7607   -3.6910   -2.8257
   336.000   -2.4916   -3.6806   -3.6222   -2.8047
   337.000   -2.4779   -3.6038   -3.5548   -2.7856
   338.000   -2.4649   -3.5304   -3.4887   -2.7687
   339.000   -2.4526   -3.4603   -3.4241   -2.7539
   340.000   -2.4411   -3.3936   -3.3609   -2.7412
   341.000   -2.4304   -3.3301   -3.2994   -2.7307
   342.000   -2.4204   -3.2700   -3.2394   -2.7224
   343.000   -2.4113   -3.2132   -3.1811   -2.7163
   344.000   -2.4031   -3.1596   -3.1246   -2.7125
   345.000   -2.3958   -3.1094   -3.0698   -2.7110
   346.000   -2.3894   -3.0623   -3.0168   -2.7118
   347.000   -2.3840   -3.0185   -2.9656   -2.7149
   348.000   -2.3796   -2.9780   -2.9163   -2.7203
   349.000   -2.3762   -2.9406   -2.8690   -2.7282
   350.000   -2.3739   -2.9065   -2.8236   -2.7384
   351.000   -2.3726   -2.8757   -2.7802   -2.7510
   352.000   -2.3724   -2.8480   -2.7388   -2.7661
   353.000   -2.3733   -2.8235   -2.6994   -2.7836
   354.000   -2.3753   -2.8022   -2.6621   -2.8035
   355.000   -2.3785   -2.7841   -2.6269   -2.8260
   356.000   -2.3828   -2.7692   -2.5939   -2.8509
   357.000   -2.3883   -2.7575   -2.5629   -2.8783
   358.000   -2.3950   -2.7490   -2.5341   -2.9082
   359.000   -2.4028   -2.7437   -2.5074   -2.9406
   360.000   -2.4119   -2.7415   -2.4830   -2.9756




  É” = 0.000 Åãplane
   É∆(deg)       EÉ”       EÉ∆       ER        EL 
     0.000   -3.2068   -3.6689   -3.4000   -3.7711
     1.000   -3.2156   -3.6709   -3.3803   -3.8043
     2.000   -3.2259   -3.6762   -3.3630   -3.8403
     3.000   -3.2378   -3.6850   -3.3481   -3.8791
     4.000   -3.2513   -3.6971   -3.3357   -3.9207
     5.000   -3.2663   -3.7127   -3.3256   -3.9651
     6.000   -3.2828   -3.7316   -3.3180   -4.0123
     7.000   -3.3010   -3.7539   -3.3128   -4.0623
     8.000   -3.3206   -3.7796   -3.3101   -4.1150
     9.000   -3.3419   -3.8087   -3.3098   -4.1706
    10.000   -3.3646   -3.8411   -3.3118   -4.2289
    11.000   -3.3890   -3.8769   -3.3163   -4.2900
    12.000   -3.4148   -3.9160   -3.3233   -4.3538
    13.000   -3.4421   -3.9585   -3.3326   -4.4204
    14.000   -3.4710   -4.0044   -3.3443   -4.4898
    15.000   -3.5013   -4.0535   -3.3583   -4.5618
    16.000   -3.5331   -4.1061   -3.3748   -4.6365
    17.000   -3.5663   -4.1619   -3.3936   -4.7139
    18.000   -3.6009   -4.2211   -3.4147   -4.7940
    19.000   -3.6369   -4.2837   -3.4381   -4.8767
    20.000   -3.6742   -4.3495   -3.4639   -4.9619
    21.000   -3.7129   -4.4187   -3.4919   -5.0498
    22.000   -3.7528   -4.4913   -3.5222   -5.1401
    23.000   -3.7940   -4.5671   -3.5547   -5.2329
    24.000   -3.8365   -4.6463   -3.5895   -5.3282
    25.000   -3.8801   -4.7288   -3.6265   -5.4258
    26.000   -3.9248   -4.8147   -3.6656   -5.5258
    27.000   -3.9706   -4.9040   -3.7069   -5.6281
    28.000   -4.0175   -4.9966   -3.7504   -5.7326
    29.000   -4.0654   -5.0925   -3.7959   -5.8393
    30.000   -4.1142   -5.1919   -3.8436   -5.9481
    31.000   -4.1639   -5.2947   -3.8933   -6.0589
    32.000   -4.2144   -5.4009   -3.9450   -6.1716
    33.000   -4.2658   -5.5106   -3.9988   -6.2863
    34.000   -4.3178   -5.6238   -4.0545   -6.4027
    35.000   -4.3706   -5.7406   -4.1122   -6.5208
    36.000   -4.4239   -5.8609   -4.1719   -6.6405
    37.000   -4.4778   -5.9848   -4.2334   -6.7616
    38.000   -4.5322   -6.1123   -4.2969   -6.8842
    39.000   -4.5869   -6.2437   -4.3622   -7.0080
    40.000   -4.6421   -6.3788   -4.4293   -7.1329
    41.000   -4.6974   -6.5177   -4.4983   -7.2588
    42.000   -4.7530   -6.6607   -4.5690   -7.3855
    43.000   -4.8087   -6.8077   -4.6415   -7.5129
    44.000   -4.8645   -6.9588   -4.7157   -7.6407
    45.000   -4.9203   -7.1142   -4.7916   -7.7690
    46.000   -4.9759   -7.2740   -4.8692   -7.8973
    47.000   -5.0313   -7.4383   -4.9485   -8.0257
    48.000   -5.0865   -7.6073   -5.0294   -8.1537
    49.000   -5.1414   -7.7812   -5.1118   -8.2812
    50.000   -5.1958   -7.9602   -5.1959   -8.4081
    51.000   -5.2497   -8.1444   -5.2815   -8.5339
    52.000   -5.3030   -8.3341   -5.3686   -8.6585
    53.000   -5.3557   -8.5296   -5.4572   -8.7816
    54.000   -5.4075   -8.7311   -5.5473   -8.9028
    55.000   -5.4586   -8.9390   -5.6388   -9.0220
    56.000   -5.5086   -9.1536   -5.7317   -9.1387
    57.000   -5.5577   -9.3753   -5.8260   -9.2526
    58.000   -5.6056   -9.6046   -5.9216   -9.3634
    59.000   -5.6523   -9.8417   -6.0184   -9.4707
    60.000   -5.6978  -10.0874   -6.1165   -9.5742
    61.000   -5.7418  -10.3422   -6.2159   -9.6734
    62.000   -5.7844  -10.6067   -6.3163   -9.7680
    63.000   -5.8255  -10.8817   -6.4179   -9.8577
    64.000   -5.8649  -11.1679   -6.5205   -9.9419
    65.000   -5.9026  -11.4662   -6.6240  -10.0204
    66.000   -5.9385  -11.7777   -6.7285  -10.0926
    67.000   -5.9725  -12.1035   -6.8338  -10.1584
    68.000   -6.0045  -12.4449   -6.9397  -10.2172
    69.000   -6.0345  -12.8034   -7.0463  -10.2687
    70.000   -6.0624  -13.1807   -7.1534  -10.3127
    71.000   -6.0881  -13.5787   -7.2609  -10.3487
    72.000   -6.1115  -13.9997   -7.3686  -10.3766
    73.000   -6.1325  -14.4463   -7.4765  -10.3960
    74.000   -6.1512  -14.9217   -7.5842  -10.4069
    75.000   -6.1674  -15.4296   -7.6917  -10.4089
    76.000   -6.1811  -15.9745   -7.7987  -10.4020
    77.000   -6.1921  -16.5617   -7.9049  -10.3861
    78.000   -6.2006  -17.1979   -8.0103  -10.3613
    79.000   -6.2063  -17.8916   -8.1144  -10.3274
    80.000   -6.2093  -18.6534   -8.2170  -10.2846
    81.000   -6.2095  -19.4972   -8.3177  -10.2330
    82.000   -6.2069  -20.4416   -8.4163  -10.1727
    83.000   -6.2015  -21.5120   -8.5123  -10.1040
    84.000   -6.1932  -22.7451   -8.6053  -10.0271
    85.000   -6.1819  -24.1954   -8.6950   -9.9423
    86.000   -6.1678  -25.9495   -8.7808   -9.8498
    87.000   -6.1507  -28.1556   -8.8623   -9.7501
    88.000   -6.1306  -30.0000   -8.9390   -9.6434
    89.000   -6.1076  -30.0000   -9.0104   -9.5301
    90.000   -6.0817  -30.0000   -9.0761   -9.4107
    91.000   -6.0528  -30.0000   -9.1353   -9.2855
    92.000   -6.0210  -30.0000   -9.1878   -9.1550
    93.000   -5.9863  -29.0124   -9.2329   -9.0195
    94.000   -5.9487  -26.4541   -9.2701   -8.8794
    95.000   -5.9082  -24.4419   -9.2991   -8.7351
    96.000   -5.8650  -22.7859   -9.3192   -8.5871
    97.000   -5.8189  -21.3786   -9.3303   -8.4357
    98.000   -5.7701  -20.1546   -9.3318   -8.2813
    99.000   -5.7187  -19.0709   -9.3236   -8.1242
   100.000   -5.6646  -18.0981   -9.3055   -7.9647
   101.000   -5.6079  -17.2152   -9.2772   -7.8033
   102.000   -5.5487  -16.4066   -9.2387   -7.6402
   103.000   -5.4871  -15.6605   -9.1900   -7.4757
   104.000   -5.4231  -14.9676   -9.1313   -7.3101
   105.000   -5.3569  -14.3208   -9.0626   -7.1437
   106.000   -5.2884  -13.7142   -8.9842   -6.9767
   107.000   -5.2178  -13.1430   -8.8965   -6.8094
   108.000   -5.1452  -12.6033   -8.7997   -6.6419
   109.000   -5.0706  -12.0917   -8.6944   -6.4745
   110.000   -4.9941  -11.6056   -8.5810   -6.3075
   111.000   -4.9159  -11.1424   -8.4599   -6.1408
   112.000   -4.8360  -10.7003   -8.3318   -5.9749
   113.000   -4.7546  -10.2774   -8.1972   -5.8097
   114.000   -4.6717   -9.8722   -8.0567   -5.6455
   115.000   -4.5874   -9.4833   -7.9108   -5.4824
   116.000   -4.5018   -9.1097   -7.7601   -5.3205
   117.000   -4.4151   -8.7503   -7.6052   -5.1599
   118.000   -4.3273   -8.4041   -7.4466   -5.0009
   119.000   -4.2385   -8.0704   -7.2849   -4.8433
   120.000   -4.1489   -7.7483   -7.1205   -4.6875
   121.000   -4.0585   -7.4373   -6.9540   -4.5334
   122.000   -3.9675   -7.1368   -6.7858   -4.3811
   123.000   -3.8759   -6.8462   -6.6164   -4.2308
   124.000   -3.7838   -6.5651   -6.4461   -4.0824
   125.000   -3.6914   -6.2930   -6.2753   -3.9361
   126.000   -3.5988   -6.0295   -6.1045   -3.7920
   127.000   -3.5059   -5.7742   -5.9338   -3.6500
   128.000   -3.4130   -5.5268   -5.7636   -3.5103
   129.000   -3.3202   -5.2871   -5.5943   -3.3729
   130.000   -3.2274   -5.0547   -5.4259   -3.2378
   131.000   -3.1348   -4.8294   -5.2589   -3.1051
   132.000   -3.0426   -4.6109   -5.0933   -2.9749
   133.000   -2.9507   -4.3990   -4.9294   -2.8471
   134.000   -2.8593   -4.1936   -4.7673   -2.7219
   135.000   -2.7684   -3.9944   -4.6072   -2.5992
   136.000   -2.6782   -3.8013   -4.4493   -2.4790
   137.000   -2.5886   -3.6141   -4.2937   -2.3615
   138.000   -2.4999   -3.4326   -4.1404   -2.2466
   139.000   -2.4120   -3.2568   -3.9897   -2.1344
   140.000   -2.3250   -3.0864   -3.8415   -2.0249
   141.000   -2.2390   -2.9215   -3.6960   -1.9181
   142.000   -2.1541   -2.7618   -3.5533   -1.8141
   143.000   -2.0702   -2.6073   -3.4134   -1.7128
   144.000   -1.9876   -2.4579   -3.2763   -1.6142
   145.000   -1.9063   -2.3134   -3.1422   -1.5185
   146.000   -1.8262   -2.1739   -3.0111   -1.4256
   147.000   -1.7475   -2.0391   -2.8830   -1.3355
   148.000   -1.6702   -1.9091   -2.7580   -1.2483
   149.000   -1.5944   -1.7839   -2.6361   -1.1640
   150.000   -1.5201   -1.6632   -2.5173   -1.0825
   151.000   -1.4473   -1.5471   -2.4016   -1.0039
   152.000   -1.3762   -1.4354   -2.2892   -0.9282
   153.000   -1.3067   -1.3283   -2.1799   -0.8554
   154.000   -1.2389   -1.2255   -2.0738   -0.7855
   155.000   -1.1728   -1.1272   -1.9709   -0.7186
   156.000   -1.1085   -1.0331   -1.8713   -0.6546
   157.000   -1.0459   -0.9433   -1.7749   -0.5936
   158.000   -0.9853   -0.8578   -1.6818   -0.5355
   159.000   -0.9265   -0.7765   -1.5919   -0.4804
   160.000   -0.8695   -0.6993   -1.5053   -0.4282
   161.000   -0.8145   -0.6263   -1.4220   -0.3791
   162.000   -0.7615   -0.5575   -1.3419   -0.3329
   163.000   -0.7104   -0.4927   -1.2651   -0.2897
   164.000   -0.6613   -0.4320   -1.1916   -0.2495
   165.000   -0.6143   -0.3754   -1.1213   -0.2122
   166.000   -0.5692   -0.3228   -1.0543   -0.1780
   167.000   -0.5262   -0.2742   -0.9906   -0.1468
   168.000   -0.4853   -0.2296   -0.9301   -0.1186
   169.000   -0.4465   -0.1890   -0.8729   -0.0934
   170.000   -0.4097   -0.1524   -0.8190   -0.0712
   171.000   -0.3751   -0.1197   -0.7683   -0.0520
   172.000   -0.3426   -0.0910   -0.7208   -0.0358
   173.000   -0.3122   -0.0662   -0.6766   -0.0227
   174.000   -0.2839   -0.0454   -0.6356   -0.0125
   175.000   -0.2577   -0.0285   -0.5978   -0.0053
   176.000   -0.2337   -0.0155   -0.5632   -0.0012
   177.000   -0.2119   -0.0064   -0.5319    0.0000
   178.000   -0.1921   -0.0013   -0.5037   -0.0018
   179.000   -0.1745    0.0000   -0.4787   -0.0067
   180.000   -0.1591   -0.0027   -0.4569   -0.0145
   181.000   -0.1458   -0.0092   -0.4382   -0.0253
   182.000   -0.1346   -0.0197   -0.4227   -0.0390
   183.000   -0.1255   -0.0341   -0.4103   -0.0558
   184.000   -0.1186   -0.0524   -0.4011   -0.0755
   185.000   -0.1137   -0.0746   -0.3949   -0.0981
   186.000   -0.1110   -0.1008   -0.3919   -0.1237
   187.000   -0.1103   -0.1309   -0.3919   -0.1523
   188.000   -0.1117   -0.1649   -0.3950   -0.1837
   189.000   -0.1151   -0.2029   -0.4012   -0.2181
   190.000   -0.1206   -0.2449   -0.4104   -0.2553
   191.000   -0.1282   -0.2908   -0.4226   -0.2955
   192.000   -0.1377   -0.3407   -0.4378   -0.3385
   193.000   -0.1492   -0.3946   -0.4560   -0.3844
   194.000   -0.1627   -0.4526   -0.4772   -0.4331
   195.000   -0.1781   -0.5146   -0.5013   -0.4847
   196.000   -0.1955   -0.5806   -0.5283   -0.5390
   197.000   -0.2148   -0.6507   -0.5582   -0.5961
   198.000   -0.2359   -0.7249   -0.5910   -0.6560
   199.000   -0.2588   -0.8033   -0.6267   -0.7186
   200.000   -0.2836   -0.8858   -0.6652   -0.7839
   201.000   -0.3102   -0.9725   -0.7065   -0.8519
   202.000   -0.3385   -1.0634   -0.7506   -0.9226
   203.000   -0.3686   -1.1585   -0.7974   -0.9958
   204.000   -0.4004   -1.2579   -0.8470   -1.0717
   205.000   -0.4338   -1.3616   -0.8992   -1.1501
   206.000   -0.4688   -1.4697   -0.9541   -1.2310
   207.000   -0.5054   -1.5822   -1.0116   -1.3144
   208.000   -0.5436   -1.6992   -1.0718   -1.4003
   209.000   -0.5833   -1.8206   -1.1345   -1.4885
   210.000   -0.6244   -1.9466   -1.1997   -1.5791
   211.000   -0.6670   -2.0772   -1.2674   -1.6719
   212.000   -0.7109   -2.2124   -1.3375   -1.7670
   213.000   -0.7562   -2.3524   -1.4100   -1.8643
   214.000   -0.8028   -2.4971   -1.4850   -1.9637
   215.000   -0.8507   -2.6468   -1.5622   -2.0652
   216.000   -0.8997   -2.8014   -1.6417   -2.1687
   217.000   -0.9500   -2.9610   -1.7234   -2.2740
   218.000   -1.0013   -3.1258   -1.8072   -2.3812
   219.000   -1.0537   -3.2957   -1.8932   -2.4902
   220.000   -1.1071   -3.4710   -1.9813   -2.6009
   221.000   -1.1614   -3.6518   -2.0713   -2.7131
   222.000   -1.2167   -3.8381   -2.1633   -2.8269
   223.000   -1.2728   -4.0301   -2.2571   -2.9420
   224.000   -1.3297   -4.2279   -2.3528   -3.0584
   225.000   -1.3874   -4.4317   -2.4502   -3.1760
   226.000   -1.4457   -4.6417   -2.5493   -3.2946
   227.000   -1.5047   -4.8579   -2.6500   -3.4142
   228.000   -1.5643   -5.0807   -2.7522   -3.5346
   229.000   -1.6244   -5.3102   -2.8559   -3.6556
   230.000   -1.6849   -5.5467   -2.9609   -3.7772
   231.000   -1.7459   -5.7903   -3.0672   -3.8991
   232.000   -1.8072   -6.0414   -3.1747   -4.0213
   233.000   -1.8688   -6.3003   -3.2833   -4.1435
   234.000   -1.9306   -6.5672   -3.3928   -4.2656
   235.000   -1.9926   -6.8425   -3.5033   -4.3874
   236.000   -2.0547   -7.1266   -3.6146   -4.5088
   237.000   -2.1169   -7.4199   -3.7266   -4.6295
   238.000   -2.1790   -7.7229   -3.8392   -4.7494
   239.000   -2.2411   -8.0361   -3.9522   -4.8682
   240.000   -2.3031   -8.3600   -4.0656   -4.9858
   241.000   -2.3649   -8.6953   -4.1793   -5.1019
   242.000   -2.4264   -9.0427   -4.2931   -5.2164
   243.000   -2.4877   -9.4029   -4.4069   -5.3290
   244.000   -2.5486   -9.7768   -4.5205   -5.4396
   245.000   -2.6091  -10.1655   -4.6339   -5.5478
   246.000   -2.6691  -10.5700   -4.7469   -5.6536
   247.000   -2.7286  -10.9916   -4.8594   -5.7566
   248.000   -2.7875  -11.4318   -4.9713   -5.8567
   249.000   -2.8458  -11.8923   -5.0823   -5.9536
   250.000   -2.9034  -12.3749   -5.1925   -6.0472
   251.000   -2.9603  -12.8819   -5.3015   -6.1373
   252.000   -3.0164  -13.4161   -5.4093   -6.2237
   253.000   -3.0717  -13.9805   -5.5158   -6.3063
   254.000   -3.1260  -14.5788   -5.6208   -6.3848
   255.000   -3.1795  -15.2156   -5.7241   -6.4591
   256.000   -3.2320  -15.8964   -5.8257   -6.5290
   257.000   -3.2834  -16.6281   -5.9253   -6.5945
   258.000   -3.3338  -17.4192   -6.0229   -6.6555
   259.000   -3.3831  -18.2809   -6.1183   -6.7118
   260.000   -3.4313  -19.2277   -6.2113   -6.7634
   261.000   -3.4783  -20.2792   -6.3019   -6.8103
   262.000   -3.5240  -21.4627   -6.3899   -6.8523
   263.000   -3.5685  -22.8181   -6.4752   -6.8895
   264.000   -3.6118  -24.4061   -6.5576   -6.9218
   265.000   -3.6537  -26.3275   -6.6371   -6.9494
   266.000   -3.6942  -28.7657   -6.7135   -6.9722
   267.000   -3.7334  -30.0000   -6.7868   -6.9902
   268.000   -3.7712  -30.0000   -6.8568   -7.0036
   269.000   -3.8076  -30.0000   -6.9234   -7.0123
   270.000   -3.8425  -30.0000   -6.9866   -7.0166
   271.000   -3.8760  -30.0000   -7.0463   -7.0165
   272.000   -3.9079  -29.7989   -7.1023   -7.0120
   273.000   -3.9384  -27.2613   -7.1547   -7.0035
   274.000   -3.9674  -25.3151   -7.2034   -6.9909
   275.000   -3.9948  -23.7396   -7.2483   -6.9744
   276.000   -4.0207  -22.4180   -7.2894   -6.9541
   277.000   -4.0450  -21.2812   -7.3266   -6.9303
   278.000   -4.0678  -20.2848   -7.3599   -6.9030
   279.000   -4.0891  -19.3988   -7.3893   -6.8725
   280.000   -4.1087  -18.6018   -7.4148   -6.8388
   281.000   -4.1268  -17.8778   -7.4363   -6.8021
   282.000   -4.1433  -17.2151   -7.4539   -6.7626
   283.000   -4.1583  -16.6043   -7.4675   -6.7205
   284.000   -4.1717  -16.0381   -7.4772   -6.6759
   285.000   -4.1835  -15.5106   -7.4830   -6.6289
   286.000   -4.1938  -15.0170   -7.4849   -6.5797
   287.000   -4.2025  -14.5533   -7.4829   -6.5285
   288.000   -4.2098  -14.1161   -7.4772   -6.4753
   289.000   -4.2155  -13.7027   -7.4676   -6.4204
   290.000   -4.2197  -13.3107   -7.4543   -6.3638
   291.000   -4.2224  -12.9379   -7.4374   -6.3058
   292.000   -4.2237  -12.5827   -7.4168   -6.2464
   293.000   -4.2235  -12.2434   -7.3927   -6.1858
   294.000   -4.2219  -11.9188   -7.3651   -6.1240
   295.000   -4.2188  -11.6077   -7.3342   -6.0612
   296.000   -4.2145  -11.3089   -7.2999   -5.9976
   297.000   -4.2087  -11.0216   -7.2624   -5.9332
   298.000   -4.2017  -10.7450   -7.2217   -5.8681
   299.000   -4.1934  -10.4783   -7.1780   -5.8025
   300.000   -4.1838  -10.2208   -7.1314   -5.7365
   301.000   -4.1730   -9.9721   -7.0819   -5.6700
   302.000   -4.1610   -9.7315   -7.0298   -5.6034
   303.000   -4.1479   -9.4986   -6.9750   -5.5366
   304.000   -4.1337   -9.2730   -6.9177   -5.4697
   305.000   -4.1185   -9.0542   -6.8581   -5.4028
   306.000   -4.1022   -8.8420   -6.7962   -5.3361
   307.000   -4.0849   -8.6360   -6.7322   -5.2696
   308.000   -4.0667   -8.4359   -6.6662   -5.2034
   309.000   -4.0477   -8.2416   -6.5983   -5.1375
   310.000   -4.0278   -8.0527   -6.5287   -5.0721
   311.000   -4.0071   -7.8690   -6.4575   -5.0073
   312.000   -3.9857   -7.6904   -6.3848   -4.9430
   313.000   -3.9637   -7.5167   -6.3108   -4.8794
   314.000   -3.9410   -7.3477   -6.2356   -4.8166
   315.000   -3.9178   -7.1834   -6.1593   -4.7547
   316.000   -3.8940   -7.0234   -6.0821   -4.6936
   317.000   -3.8698   -6.8679   -6.0041   -4.6336
   318.000   -3.8452   -6.7166   -5.9254   -4.5745
   319.000   -3.8203   -6.5695   -5.8462   -4.5166
   320.000   -3.7951   -6.4264   -5.7666   -4.4599
   321.000   -3.7697   -6.2874   -5.6868   -4.4045
   322.000   -3.7441   -6.1523   -5.6067   -4.3503
   323.000   -3.7184   -6.0211   -5.5267   -4.2975
   324.000   -3.6927   -5.8937   -5.4467   -4.2462
   325.000   -3.6671   -5.7700   -5.3670   -4.1964
   326.000   -3.6415   -5.6502   -5.2875   -4.1481
   327.000   -3.6160   -5.5340   -5.2086   -4.1015
   328.000   -3.5908   -5.4214   -5.1301   -4.0565
   329.000   -3.5658   -5.3125   -5.0524   -4.0133
   330.000   -3.5412   -5.2073   -4.9754   -3.9718
   331.000   -3.5169   -5.1055   -4.8993   -3.9322
   332.000   -3.4931   -5.0074   -4.8241   -3.8945
   333.000   -3.4698   -4.9128   -4.7500   -3.8587
   334.000   -3.4470   -4.8217   -4.6770   -3.8249
   335.000   -3.4249   -4.7342   -4.6053   -3.7931
   336.000   -3.4034   -4.6501   -4.5349   -3.7634
   337.000   -3.3827   -4.5695   -4.4659   -3.7359
   338.000   -3.3627   -4.4925   -4.3983   -3.7105
   339.000   -3.3436   -4.4189   -4.3324   -3.6873
   340.000   -3.3253   -4.3487   -4.2680   -3.6664
   341.000   -3.3079   -4.2820   -4.2053   -3.6478
   342.000   -3.2915   -4.2188   -4.1444   -3.6315
   343.000   -3.2762   -4.1591   -4.0852   -3.6176
   344.000   -3.2619   -4.1028   -4.0280   -3.6060
   345.000   -3.2487   -4.0499   -3.9726   -3.5969
   346.000   -3.2366   -4.0005   -3.9192   -3.5903
   347.000   -3.2258   -3.9545   -3.8679   -3.5862
   348.000   -3.2161   -3.9120   -3.8186   -3.5846
   349.000   -3.2078   -3.8728   -3.7714   -3.5855
   350.000   -3.2007   -3.8372   -3.7263   -3.5891
   351.000   -3.1949   -3.8049   -3.6834   -3.5952
   352.000   -3.1905   -3.7761   -3.6427   -3.6040
   353.000   -3.1874   -3.7508   -3.6043   -3.6154
   354.000   -3.1858   -3.7288   -3.5681   -3.6295
   355.000   -3.1856   -3.7103   -3.5343   -3.6463
   356.000   -3.1869   -3.6952   -3.5027   -3.6657
   357.000   -3.1896   -3.6835   -3.4735   -3.6880
   358.000   -3.1938   -3.6752   -3.4466   -3.7129
   359.000   -3.1996   -3.6704   -3.4221   -3.7406
   360.000   -3.2068   -3.6689   -3.4000   -3.7711




  É” = 0.000 Åãplane
   É∆(deg)       EÉ”       EÉ∆       ER        EL 
     0.000   -4.2872   -4.8426   -4.6643   -4.7510
     1.000   -4.2916   -4.8467   -4.6462   -4.7781
     2.000   -4.2982   -4.8549   -4.6311   -4.8087
     3.000   -4.3070   -4.8672   -4.6190   -4.8427
     4.000   -4.3180   -4.8836   -4.6100   -4.8802
     5.000   -4.3313   -4.9041   -4.6039   -4.9211
     6.000   -4.3468   -4.9287   -4.6009   -4.9655
     7.000   -4.3646   -4.9574   -4.6009   -5.0134
     8.000   -4.3846   -4.9901   -4.6039   -5.0647
     9.000   -4.4069   -5.0269   -4.6099   -5.1194
    10.000   -4.4314   -5.0677   -4.6189   -5.1776
    11.000   -4.4581   -5.1125   -4.6307   -5.2393
    12.000   -4.4870   -5.1613   -4.6455   -5.3044
    13.000   -4.5181   -5.2142   -4.6632   -5.3729
    14.000   -4.5514   -5.2710   -4.6838   -5.4448
    15.000   -4.5868   -5.3318   -4.7072   -5.5201
    16.000   -4.6243   -5.3965   -4.7335   -5.5988
    17.000   -4.6639   -5.4651   -4.7625   -5.6808
    18.000   -4.7056   -5.5376   -4.7943   -5.7661
    19.000   -4.7492   -5.6140   -4.8288   -5.8547
    20.000   -4.7949   -5.6942   -4.8659   -5.9465
    21.000   -4.8426   -5.7783   -4.9057   -6.0416
    22.000   -4.8921   -5.8661   -4.9481   -6.1399
    23.000   -4.9435   -5.9578   -4.9931   -6.2412
    24.000   -4.9967   -6.0531   -5.0405   -6.3456
    25.000   -5.0517   -6.1522   -5.0905   -6.4531
    26.000   -5.1084   -6.2550   -5.1428   -6.5635
    27.000   -5.1667   -6.3615   -5.1975   -6.6768
    28.000   -5.2266   -6.4715   -5.2545   -6.7930
    29.000   -5.2880   -6.5852   -5.3138   -6.9119
    30.000   -5.3509   -6.7025   -5.3753   -7.0335
    31.000   -5.4152   -6.8233   -5.4390   -7.1577
    32.000   -5.4809   -6.9477   -5.5047   -7.2843
    33.000   -5.5477   -7.0755   -5.5725   -7.4134
    34.000   -5.6157   -7.2069   -5.6424   -7.5448
    35.000   -5.6848   -7.3417   -5.7141   -7.6783
    36.000   -5.7549   -7.4799   -5.7877   -7.8139
    37.000   -5.8259   -7.6216   -5.8632   -7.9514
    38.000   -5.8977   -7.7667   -5.9404   -8.0908
    39.000   -5.9702   -7.9153   -6.0193   -8.2317
    40.000   -6.0434   -8.0672   -6.0999   -8.3742
    41.000   -6.1170   -8.2226   -6.1821   -8.5180
    42.000   -6.1911   -8.3814   -6.2658   -8.6629
    43.000   -6.2655   -8.5438   -6.3510   -8.8088
    44.000   -6.3401   -8.7096   -6.4376   -8.9555
    45.000   -6.4148   -8.8789   -6.5256   -9.1027
    46.000   -6.4894   -9.0519   -6.6149   -9.2503
    47.000   -6.5639   -9.2285   -6.7055   -9.3980
    48.000   -6.6380   -9.4090   -6.7973   -9.5455
    49.000   -6.7118   -9.5932   -6.8902   -9.6927
    50.000   -6.7851   -9.7815   -6.9842   -9.8392
    51.000   -6.8577   -9.9740   -7.0793   -9.9848
    52.000   -6.9295  -10.1707   -7.1754  -10.1291
    53.000   -7.0004  -10.3719   -7.2725  -10.2719
    54.000   -7.0702  -10.5779   -7.3705  -10.4128
    55.000   -7.1388  -10.7888   -7.4693  -10.5515
    56.000   -7.2060  -11.0051   -7.5689  -10.6876
    57.000   -7.2718  -11.2269   -7.6692  -10.8208
    58.000   -7.3359  -11.4547   -7.7703  -10.9507
    59.000   -7.3982  -11.6889   -7.8720  -11.0769
    60.000   -7.4587  -11.9300   -7.9743  -11.1991
    61.000   -7.5170  -12.1785   -8.0772  -11.3167
    62.000   -7.5732  -12.4350   -8.1805  -11.4294
    63.000   -7.6270  -12.7002   -8.2842  -11.5368
    64.000   -7.6783  -12.9749   -8.3882  -11.6385
    65.000   -7.7270  -13.2599   -8.4925  -11.7339
    66.000   -7.7729  -13.5562   -8.5970  -11.8227
    67.000   -7.8160  -13.8648   -8.7015  -11.9045
    68.000   -7.8560  -14.1871   -8.8060  -11.9788
    69.000   -7.8928  -14.5244   -8.9104  -12.0453
    70.000   -7.9263  -14.8784   -9.0144  -12.1035
    71.000   -7.9565  -15.2509   -9.1181  -12.1530
    72.000   -7.9831  -15.6441   -9.2212  -12.1936
    73.000   -8.0061  -16.0604   -9.3235  -12.2249
    74.000   -8.0254  -16.5028   -9.4248  -12.2466
    75.000   -8.0409  -16.9748   -9.5250  -12.2585
    76.000   -8.0524  -17.4804   -9.6237  -12.2604
    77.000   -8.0600  -18.0245   -9.7208  -12.2520
    78.000   -8.0635  -18.6133   -9.8158  -12.2333
    79.000   -8.0630  -19.2542   -9.9086  -12.2043
    80.000   -8.0582  -19.9565   -9.9986  -12.1649
    81.000   -8.0492  -20.7322  -10.0856  -12.1151
    82.000   -8.0360  -21.5972  -10.1691  -12.0550
    83.000   -8.0185  -22.5724  -10.2487  -11.9848
    84.000   -7.9967  -23.6870  -10.3239  -11.9048
    85.000   -7.9706  -24.9826  -10.3942  -11.8150
    86.000   -7.9403  -26.5212  -10.4590  -11.7159
    87.000   -7.9056  -28.3986  -10.5179  -11.6077
    88.000   -7.8668  -30.0000  -10.5703  -11.4908
    89.000   -7.8237  -30.0000  -10.6156  -11.3657
    90.000   -7.7765  -30.0000  -10.6533  -11.2326
    91.000   -7.7251  -30.0000  -10.6828  -11.0921
    92.000   -7.6698  -30.0000  -10.7035  -10.9447
    93.000   -7.6104  -30.0000  -10.7150  -10.7908
    94.000   -7.5472  -28.4273  -10.7168  -10.6308
    95.000   -7.4802  -26.2931  -10.7084  -10.4653
    96.000   -7.4095  -24.5301  -10.6896  -10.2947
    97.000   -7.3352  -23.0313  -10.6601  -10.1195
    98.000   -7.2574  -21.7278  -10.6196   -9.9402
    99.000   -7.1762  -20.5740  -10.5680   -9.7572
   100.000   -7.0918  -19.5384  -10.5053   -9.5710
   101.000   -7.0043  -18.5982  -10.4315   -9.3819
   102.000   -6.9138  -17.7367  -10.3468   -9.1904
   103.000   -6.8204  -16.9413  -10.2515   -8.9969
   104.000   -6.7244  -16.2023  -10.1459   -8.8017
   105.000   -6.6257  -15.5117  -10.0303   -8.6052
   106.000   -6.5246  -14.8635   -9.9052   -8.4077
   107.000   -6.4213  -14.2526   -9.7712   -8.2096
   108.000   -6.3157  -13.6747   -9.6287   -8.0111
   109.000   -6.2082  -13.1265   -9.4786   -7.8125
   110.000   -6.0989  -12.6050   -9.3212   -7.6141
   111.000   -5.9878  -12.1076   -9.1574   -7.4161
   112.000   -5.8752  -11.6324   -8.9878   -7.2187
   113.000   -5.7611  -11.1774   -8.8130   -7.0222
   114.000   -5.6458  -10.7411   -8.6336   -6.8268
   115.000   -5.5293  -10.3220   -8.4503   -6.6325
   116.000   -5.4119   -9.9189   -8.2637   -6.4397
   117.000   -5.2936   -9.5309   -8.0743   -6.2485
   118.000   -5.1746   -9.1569   -7.8828   -6.0589
   119.000   -5.0550   -8.7960   -7.6895   -5.8712
   120.000   -4.9349   -8.4475   -7.4951   -5.6855
   121.000   -4.8145   -8.1108   -7.3000   -5.5019
   122.000   -4.6939   -7.7852   -7.1046   -5.3204
   123.000   -4.5732   -7.4702   -6.9092   -5.1412
   124.000   -4.4526   -7.1652   -6.7143   -4.9644
   125.000   -4.3321   -6.8698   -6.5201   -4.7901
   126.000   -4.2118   -6.5837   -6.3270   -4.6184
   127.000   -4.0920   -6.3063   -6.1352   -4.4492
   128.000   -3.9726   -6.0375   -5.9451   -4.2827
   129.000   -3.8538   -5.7768   -5.7567   -4.1190
   130.000   -3.7357   -5.5240   -5.5704   -3.9580
   131.000   -3.6183   -5.2788   -5.3863   -3.7999
   132.000   -3.5019   -5.0409   -5.2045   -3.6447
   133.000   -3.3864   -4.8102   -5.0253   -3.4924
   134.000   -3.2719   -4.5864   -4.8487   -3.3431
   135.000   -3.1586   -4.3694   -4.6749   -3.1968
   136.000   -3.0465   -4.1589   -4.5041   -3.0536
   137.000   -2.9357   -3.9547   -4.3361   -2.9134
   138.000   -2.8262   -3.7569   -4.1713   -2.7764
   139.000   -2.7182   -3.5651   -4.0096   -2.6424
   140.000   -2.6117   -3.3793   -3.8511   -2.5117
   141.000   -2.5068   -3.1993   -3.6959   -2.3841
   142.000   -2.4036   -3.0250   -3.5440   -2.2597
   143.000   -2.3020   -2.8563   -3.3955   -2.1385
   144.000   -2.2022   -2.6931   -3.2504   -2.0206
   145.000   -2.1042   -2.5354   -3.1087   -1.9059
   146.000   -2.0081   -2.3830   -2.9705   -1.7945
   147.000   -1.9139   -2.2358   -2.8359   -1.6864
   148.000   -1.8217   -2.0937   -2.7048   -1.5816
   149.000   -1.7315   -1.9568   -2.5772   -1.4801
   150.000   -1.6434   -1.8249   -2.4532   -1.3819
   151.000   -1.5573   -1.6980   -2.3328   -1.2870
   152.000   -1.4735   -1.5760   -2.2159   -1.1954
   153.000   -1.3918   -1.4588   -2.1027   -1.1072
   154.000   -1.3123   -1.3464   -1.9931   -1.0224
   155.000   -1.2351   -1.2388   -1.8871   -0.9409
   156.000   -1.1602   -1.1358   -1.7848   -0.8628
   157.000   -1.0876   -1.0376   -1.6861   -0.7880
   158.000   -1.0173   -0.9439   -1.5910   -0.7166
   159.000   -0.9494   -0.8549   -1.4996   -0.6486
   160.000   -0.8839   -0.7704   -1.4118   -0.5840
   161.000   -0.8209   -0.6904   -1.3276   -0.5227
   162.000   -0.7603   -0.6149   -1.2471   -0.4648
   163.000   -0.7021   -0.5439   -1.1702   -0.4104
   164.000   -0.6464   -0.4773   -1.0969   -0.3593
   165.000   -0.5933   -0.4152   -1.0273   -0.3116
   166.000   -0.5426   -0.3574   -0.9613   -0.2673
   167.000   -0.4945   -0.3041   -0.8989   -0.2264
   168.000   -0.4489   -0.2550   -0.8401   -0.1889
   169.000   -0.4059   -0.2104   -0.7849   -0.1548
   170.000   -0.3655   -0.1700   -0.7334   -0.1240
   171.000   -0.3276   -0.1340   -0.6854   -0.0967
   172.000   -0.2923   -0.1022   -0.6410   -0.0728
   173.000   -0.2595   -0.0748   -0.6002   -0.0522
   174.000   -0.2294   -0.0517   -0.5630   -0.0351
   175.000   -0.2019   -0.0328   -0.5293   -0.0213
   176.000   -0.1769   -0.0182   -0.4992   -0.0109
   177.000   -0.1545   -0.0079   -0.4727   -0.0039
   178.000   -0.1347   -0.0018   -0.4496   -0.0003
   179.000   -0.1176    0.0000   -0.4302    0.0000
   180.000   -0.1029   -0.0025   -0.4142   -0.0031
   181.000   -0.0909   -0.0092   -0.4018   -0.0096
   182.000   -0.0814   -0.0202   -0.3928   -0.0194
   183.000   -0.0745   -0.0354   -0.3874   -0.0325
   184.000   -0.0702   -0.0550   -0.3854   -0.0491
   185.000   -0.0684   -0.0788   -0.3868   -0.0689
   186.000   -0.0691   -0.1069   -0.3918   -0.0921
   187.000   -0.0724   -0.1393   -0.4001   -0.1186
   188.000   -0.0781   -0.1759   -0.4119   -0.1484
   189.000   -0.0864   -0.2170   -0.4271   -0.1814
   190.000   -0.0971   -0.2623   -0.4457   -0.2178
   191.000   -0.1103   -0.3120   -0.4677   -0.2575
   192.000   -0.1259   -0.3660   -0.4930   -0.3004
   193.000   -0.1439   -0.4244   -0.5217   -0.3466
   194.000   -0.1643   -0.4872   -0.5537   -0.3960
   195.000   -0.1871   -0.5544   -0.5890   -0.4486
   196.000   -0.2122   -0.6261   -0.6276   -0.5045
   197.000   -0.2397   -0.7022   -0.6695   -0.5635
   198.000   -0.2695   -0.7828   -0.7146   -0.6257
   199.000   -0.3015   -0.8679   -0.7630   -0.6910
   200.000   -0.3358   -0.9575   -0.8145   -0.7595
   201.000   -0.3722   -1.0518   -0.8692   -0.8311
   202.000   -0.4109   -1.1506   -0.9271   -0.9057
   203.000   -0.4517   -1.2541   -0.9880   -0.9834
   204.000   -0.4946   -1.3622   -1.0521   -1.0642
   205.000   -0.5395   -1.4751   -1.1192   -1.1479
   206.000   -0.5865   -1.5928   -1.1894   -1.2347
   207.000   -0.6355   -1.7153   -1.2625   -1.3243
   208.000   -0.6865   -1.8426   -1.3386   -1.4169
   209.000   -0.7394   -1.9749   -1.4177   -1.5123
   210.000   -0.7941   -2.1121   -1.4996   -1.6105
   211.000   -0.8507   -2.2544   -1.5844   -1.7116
   212.000   -0.9091   -2.4018   -1.6719   -1.8153
   213.000   -0.9692   -2.5544   -1.7622   -1.9218
   214.000   -1.0310   -2.7122   -1.8552   -2.0309
   215.000   -1.0945   -2.8754   -1.9509   -2.1426
   216.000   -1.1596   -3.0440   -2.0492   -2.2568
   217.000   -1.2261   -3.2181   -2.1500   -2.3734
   218.000   -1.2942   -3.3978   -2.2533   -2.4925
   219.000   -1.3638   -3.5833   -2.3591   -2.6139
   220.000   -1.4347   -3.7745   -2.4672   -2.7376
   221.000   -1.5069   -3.9718   -2.5776   -2.8634
   222.000   -1.5805   -4.1750   -2.6902   -2.9914
   223.000   -1.6552   -4.3846   -2.8050   -3.1213
   224.000   -1.7311   -4.6004   -2.9219   -3.2531
   225.000   -1.8081   -4.8228   -3.0407   -3.3868
   226.000   -1.8861   -5.0519   -3.1615   -3.5222
   227.000   -1.9651   -5.2879   -3.2840   -3.6591
   228.000   -2.0450   -5.5310   -3.4083   -3.7976
   229.000   -2.1257   -5.7814   -3.5342   -3.9374
   230.000   -2.2072   -6.0394   -3.6616   -4.0784
   231.000   -2.2895   -6.3051   -3.7905   -4.2205
   232.000   -2.3723   -6.5789   -3.9206   -4.3636
   233.000   -2.4558   -6.8612   -4.0519   -4.5074
   234.000   -2.5398   -7.1521   -4.1843   -4.6519
   235.000   -2.6242   -7.4521   -4.3176   -4.7968
   236.000   -2.7090   -7.7616   -4.4518   -4.9420
   237.000   -2.7941   -8.0811   -4.5866   -5.0873
   238.000   -2.8795   -8.4109   -4.7219   -5.2325
   239.000   -2.9650   -8.7517   -4.8576   -5.3774
   240.000   -3.0506   -9.1040   -4.9936   -5.5218
   241.000   -3.1362   -9.4685   -5.1297   -5.6656
   242.000   -3.2218   -9.8459   -5.2657   -5.8084
   243.000   -3.3073  -10.2371   -5.4015   -5.9500
   244.000   -3.3925  -10.6430   -5.5369   -6.0903
   245.000   -3.4776  -11.0645   -5.6718   -6.2290
   246.000   -3.5623  -11.5030   -5.8059   -6.3659
   247.000   -3.6466  -11.9597   -5.9392   -6.5006
   248.000   -3.7304  -12.4362   -6.0715   -6.6331
   249.000   -3.8137  -12.9342   -6.2026   -6.7630
   250.000   -3.8964  -13.4559   -6.3322   -6.8901
   251.000   -3.9784  -14.0036   -6.4604   -7.0142
   252.000   -4.0597  -14.5802   -6.5869   -7.1350
   253.000   -4.1402  -15.1890   -6.7115   -7.2523
   254.000   -4.2198  -15.8342   -6.8341   -7.3660
   255.000   -4.2984  -16.5206   -6.9545   -7.4757
   256.000   -4.3761  -17.2543   -7.0726   -7.5813
   257.000   -4.4526  -18.0428   -7.1882   -7.6825
   258.000   -4.5281  -18.8958   -7.3012   -7.7794
   259.000   -4.6023  -19.8256   -7.4115   -7.8715
   260.000   -4.6753  -20.8487   -7.5190   -7.9589
   261.000   -4.7469  -21.9876   -7.6235   -8.0414
   262.000   -4.8172  -23.2741   -7.7249   -8.1188
   263.000   -4.8861  -24.7551   -7.8231   -8.1911
   264.000   -4.9534  -26.5040   -7.9180   -8.2583
   265.000   -5.0192  -28.6445   -8.0096   -8.3201
   266.000   -5.0834  -30.0000   -8.0978   -8.3767
   267.000   -5.1460  -30.0000   -8.1824   -8.4279
   268.000   -5.2068  -30.0000   -8.2635   -8.4739
   269.000   -5.2659  -30.0000   -8.3410   -8.5145
   270.000   -5.3232  -30.0000   -8.4148   -8.5498
   271.000   -5.3786  -30.0000   -8.4850   -8.5799
   272.000   -5.4321  -29.8289   -8.5514   -8.6048
   273.000   -5.4836  -27.6974   -8.6140   -8.6246
   274.000   -5.5332  -26.0052   -8.6729   -8.6394
   275.000   -5.5808  -24.6071   -8.7279   -8.6493
   276.000   -5.6262  -23.4190   -8.7792   -8.6543
   277.000   -5.6696  -22.3880   -8.8267   -8.6546
   278.000   -5.7108  -21.4788   -8.8703   -8.6504
   279.000   -5.7499  -20.6665   -8.9100   -8.6416
   280.000   -5.7867  -19.9331   -8.9460   -8.6285
   281.000   -5.8213  -19.2651   -8.9780   -8.6112
   282.000   -5.8536  -18.6520   -9.0062   -8.5898
   283.000   -5.8836  -18.0857   -9.0306   -8.5644
   284.000   -5.9112  -17.5595   -9.0511   -8.5353
   285.000   -5.9366  -17.0682   -9.0676   -8.5024
   286.000   -5.9596  -16.6073   -9.0804   -8.4661
   287.000   -5.9802  -16.1732   -9.0892   -8.4263
   288.000   -5.9984  -15.7629   -9.0941   -8.3833
   289.000   -6.0142  -15.3736   -9.0951   -8.3372
   290.000   -6.0276  -15.0031   -9.0922   -8.2881
   291.000   -6.0386  -14.6496   -9.0853   -8.2362
   292.000   -6.0472  -14.3114   -9.0746   -8.1815
   293.000   -6.0533  -13.9870   -9.0599   -8.1243
   294.000   -6.0571  -13.6751   -9.0414   -8.0646
   295.000   -6.0585  -13.3747   -9.0189   -8.0027
   296.000   -6.0576  -13.0847   -8.9926   -7.9385
   297.000   -6.0543  -12.8044   -8.9624   -7.8724
   298.000   -6.0486  -12.5329   -8.9284   -7.8043
   299.000   -6.0407  -12.2696   -8.8907   -7.7344
   300.000   -6.0306  -12.0139   -8.8492   -7.6629
   301.000   -6.0182  -11.7653   -8.8040   -7.5899
   302.000   -6.0036  -11.5233   -8.7552   -7.5156
   303.000   -5.9869  -11.2876   -8.7029   -7.4399
   304.000   -5.9682  -11.0577   -8.6471   -7.3632
   305.000   -5.9474  -10.8333   -8.5880   -7.2855
   306.000   -5.9247  -10.6143   -8.5256   -7.2069
   307.000   -5.9000  -10.4003   -8.4602   -7.1276
   308.000   -5.8736  -10.1911   -8.3917   -7.0478
   309.000   -5.8454   -9.9866   -8.3204   -6.9674
   310.000   -5.8156   -9.7866   -8.2464   -6.8868
   311.000   -5.7842   -9.5909   -8.1698   -6.8059
   312.000   -5.7512   -9.3995   -8.0908   -6.7250
   313.000   -5.7169   -9.2123   -8.0096   -6.6441
   314.000   -5.6813   -9.0291   -7.9264   -6.5634
   315.000   -5.6444   -8.8499   -7.8412   -6.4831
   316.000   -5.6064   -8.6747   -7.7544   -6.4031
   317.000   -5.5673   -8.5034   -7.6661   -6.3237
   318.000   -5.5274   -8.3360   -7.5765   -6.2449
   319.000   -5.4866   -8.1724   -7.4857   -6.1670
   320.000   -5.4451   -8.0126   -7.3940   -6.0899
   321.000   -5.4030   -7.8567   -7.3016   -6.0139
   322.000   -5.3603   -7.7046   -7.2086   -5.9390
   323.000   -5.3173   -7.5562   -7.1152   -5.8653
   324.000   -5.2740   -7.4117   -7.0217   -5.7929
   325.000   -5.2304   -7.2710   -6.9281   -5.7220
   326.000   -5.1868   -7.1341   -6.8347   -5.6527
   327.000   -5.1432   -7.0010   -6.7417   -5.5850
   328.000   -5.0997   -6.8718   -6.6491   -5.5190
   329.000   -5.0565   -6.7464   -6.5573   -5.4548
   330.000   -5.0136   -6.6249   -6.4662   -5.3926
   331.000   -4.9711   -6.5073   -6.3762   -5.3323
   332.000   -4.9291   -6.3935   -6.2872   -5.2742
   333.000   -4.8877   -6.2837   -6.1996   -5.2182
   334.000   -4.8471   -6.1778   -6.1133   -5.1645
   335.000   -4.8073   -6.0758   -6.0286   -5.1131
   336.000   -4.7683   -5.9778   -5.9455   -5.0641
   337.000   -4.7304   -5.8838   -5.8642   -5.0176
   338.000   -4.6935   -5.7937   -5.7847   -4.9736
   339.000   -4.6578   -5.7077   -5.7072   -4.9322
   340.000   -4.6233   -5.6256   -5.6318   -4.8934
   341.000   -4.5901   -5.5476   -5.5586   -4.8574
   342.000   -4.5582   -5.4736   -5.4876   -4.8242
   343.000   -4.5279   -5.4037   -5.4190   -4.7938
   344.000   -4.4990   -5.3379   -5.3528   -4.7662
   345.000   -4.4718   -5.2761   -5.2890   -4.7416
   346.000   -4.4461   -5.2184   -5.2278   -4.7200
   347.000   -4.4222   -5.1648   -5.1692   -4.7014
   348.000   -4.4000   -5.1153   -5.1133   -4.6859
   349.000   -4.3797   -5.0699   -5.0601   -4.6735
   350.000   -4.3612   -5.0286   -5.0096   -4.6642
   351.000   -4.3446   -4.9914   -4.9620   -4.6581
   352.000   -4.3300   -4.9584   -4.9172   -4.6552
   353.000   -4.3173   -4.9295   -4.8752   -4.6555
   354.000   -4.3067   -4.9047   -4.8362   -4.6592
   355.000   -4.2981   -4.8840   -4.8001   -4.6661
   356.000   -4.2917   -4.8675   -4.7670   -4.6763
   357.000   -4.2873   -4.8551   -4.7368   -4.6899
   358.000   -4.2851   -4.8468   -4.7096   -4.7069
   359.000   -4.2851   -4.8426   -4.6855   -4.7272
   360.000   -4.2872   -4.8426   -4.6643   -4.7510




  É” = 0.000 Åãplane
   É∆(deg)       EÉ”       EÉ∆       ER        EL 
     0.000   -4.2628   -5.0174   -4.4729   -4.4362
     1.000   -4.2593   -5.0241   -4.4616   -4.4496
     2.000   -4.2598   -5.0366   -4.4552   -4.4680
     3.000   -4.2642   -5.0550   -4.4535   -4.4914
     4.000   -4.2726   -5.0793   -4.4566   -4.5197
     5.000   -4.2850   -5.1095   -4.4644   -4.5531
     6.000   -4.3013   -5.1456   -4.4769   -4.5914
     7.000   -4.3216   -5.1876   -4.4941   -4.6347
     8.000   -4.3459   -5.2355   -4.5160   -4.6830
     9.000   -4.3741   -5.2893   -4.5426   -4.7364
    10.000   -4.4062   -5.3491   -4.5738   -4.7948
    11.000   -4.4423   -5.4149   -4.6096   -4.8582
    12.000   -4.4823   -5.4866   -4.6501   -4.9267
    13.000   -4.5261   -5.5643   -4.6951   -5.0003
    14.000   -4.5739   -5.6480   -4.7447   -5.0789
    15.000   -4.6255   -5.7378   -4.7988   -5.1626
    16.000   -4.6810   -5.8336   -4.8575   -5.2514
    17.000   -4.7404   -5.9355   -4.9206   -5.3453
    18.000   -4.8035   -6.0435   -4.9881   -5.4442
    19.000   -4.8705   -6.1577   -5.0600   -5.5483
    20.000   -4.9413   -6.2780   -5.1364   -5.6575
    21.000   -5.0158   -6.4044   -5.2170   -5.7719
    22.000   -5.0940   -6.5371   -5.3020   -5.8913
    23.000   -5.1759   -6.6760   -5.3911   -6.0159
    24.000   -5.2615   -6.8212   -5.4845   -6.1456
    25.000   -5.3508   -6.9726   -5.5820   -6.2804
    26.000   -5.4437   -7.1304   -5.6837   -6.4204
    27.000   -5.5401   -7.2945   -5.7893   -6.5655
    28.000   -5.6401   -7.4649   -5.8989   -6.7156
    29.000   -5.7436   -7.6417   -6.0124   -6.8709
    30.000   -5.8505   -7.8248   -6.1298   -7.0313
    31.000   -5.9609   -8.0144   -6.2509   -7.1968
    32.000   -6.0746   -8.2103   -6.3757   -7.3673
    33.000   -6.1916   -8.4127   -6.5041   -7.5428
    34.000   -6.3119   -8.6214   -6.6359   -7.7233
    35.000   -6.4353   -8.8365   -6.7712   -7.9087
    36.000   -6.5619   -9.0580   -6.9098   -8.0990
    37.000   -6.6916   -9.2858   -7.0515   -8.2942
    38.000   -6.8242   -9.5199   -7.1963   -8.4942
    39.000   -6.9597   -9.7602   -7.3440   -8.6988
    40.000   -7.0980  -10.0067   -7.4945   -8.9081
    41.000   -7.2390  -10.2593   -7.6477   -9.1218
    42.000   -7.3827  -10.5179   -7.8033   -9.3400
    43.000   -7.5288  -10.7823   -7.9614   -9.5624
    44.000   -7.6773  -11.0525   -8.1216   -9.7889
    45.000   -7.8281  -11.3282   -8.2838  -10.0193
    46.000   -7.9809  -11.6093   -8.4478  -10.2535
    47.000   -8.1357  -11.8956   -8.6135  -10.4912
    48.000   -8.2923  -12.1868   -8.7807  -10.7321
    49.000   -8.4505  -12.4827   -8.9490  -10.9760
    50.000   -8.6101  -12.7829   -9.1184  -11.2226
    51.000   -8.7709  -13.0872   -9.2886  -11.4715
    52.000   -8.9326  -13.3951   -9.4593  -11.7223
    53.000   -9.0951  -13.7064   -9.6304  -11.9746
    54.000   -9.2580  -14.0205   -9.8016  -12.2279
    55.000   -9.4210  -14.3371   -9.9726  -12.4816
    56.000   -9.5838  -14.6557  -10.1433  -12.7353
    57.000   -9.7461  -14.9759  -10.3133  -12.9881
    58.000   -9.9075  -15.2973  -10.4825  -13.2394
    59.000  -10.0676  -15.6194  -10.6504  -13.4885
    60.000  -10.2259  -15.9419  -10.8170  -13.7345
    61.000  -10.3821  -16.2645  -10.9819  -13.9765
    62.000  -10.5355  -16.5869  -11.1449  -14.2135
    63.000  -10.6858  -16.9090  -11.3057  -14.4446
    64.000  -10.8323  -17.2307  -11.4640  -14.6686
    65.000  -10.9744  -17.5523  -11.6197  -14.8845
    66.000  -11.1116  -17.8739  -11.7724  -15.0910
    67.000  -11.2433  -18.1960  -11.9219  -15.2871
    68.000  -11.3688  -18.5194  -12.0679  -15.4714
    69.000  -11.4874  -18.8449  -12.2101  -15.6429
    70.000  -11.5984  -19.1738  -12.3483  -15.8003
    71.000  -11.7013  -19.5076  -12.4822  -15.9426
    72.000  -11.7954  -19.8480  -12.6114  -16.0686
    73.000  -11.8801  -20.1971  -12.7358  -16.1775
    74.000  -11.9547  -20.5575  -12.8549  -16.2684
    75.000  -12.0188  -20.9320  -12.9684  -16.3406
    76.000  -12.0717  -21.3239  -13.0759  -16.3934
    77.000  -12.1132  -21.7371  -13.1771  -16.4266
    78.000  -12.1427  -22.1761  -13.2714  -16.4398
    79.000  -12.1601  -22.6461  -13.3586  -16.4330
    80.000  -12.1651  -23.1531  -13.4380  -16.4063
    81.000  -12.1576  -23.7044  -13.5092  -16.3598
    82.000  -12.1376  -24.3084  -13.5717  -16.2940
    83.000  -12.1052  -24.9755  -13.6248  -16.2095
    84.000  -12.0606  -25.7181  -13.6680  -16.1069
    85.000  -12.0039  -26.5512  -13.7008  -15.9868
    86.000  -11.9355  -27.4925  -13.7225  -15.8503
    87.000  -11.8558  -28.5619  -13.7326  -15.6982
    88.000  -11.7653  -29.7769  -13.7305  -15.5314
    89.000  -11.6645  -30.0000  -13.7158  -15.3509
    90.000  -11.5539  -30.0000  -13.6878  -15.1577
    91.000  -11.4342  -30.0000  -13.6464  -14.9529
    92.000  -11.3058  -30.0000  -13.5912  -14.7375
    93.000  -11.1695  -30.0000  -13.5219  -14.5123
    94.000  -11.0259  -30.0000  -13.4384  -14.2785
    95.000  -10.8755  -30.0000  -13.3409  -14.0368
    96.000  -10.7190  -29.2685  -13.2293  -13.7883
    97.000  -10.5570  -27.6285  -13.1041  -13.5338
    98.000  -10.3900  -26.1417  -12.9655  -13.2741
    99.000  -10.2185  -24.7976  -12.8140  -13.0099
   100.000  -10.0431  -23.5774  -12.6502  -12.7420
   101.000   -9.8643  -22.4629  -12.4747  -12.4711
   102.000   -9.6825  -21.4380  -12.2884  -12.1979
   103.000   -9.4982  -20.4898  -12.0921  -11.9229
   104.000   -9.3117  -19.6076  -11.8865  -11.6466
   105.000   -9.1234  -18.7827  -11.6725  -11.3697
   106.000   -8.9338  -18.0081  -11.4511  -11.0926
   107.000   -8.7430  -17.2778  -11.2230  -10.8157
   108.000   -8.5515  -16.5871  -10.9892  -10.5394
   109.000   -8.3594  -15.9318  -10.7505  -10.2641
   110.000   -8.1671  -15.3084  -10.5078   -9.9901
   111.000   -7.9748  -14.7141  -10.2617   -9.7179
   112.000   -7.7826  -14.1464  -10.0130   -9.4475
   113.000   -7.5909  -13.6029   -9.7625   -9.1794
   114.000   -7.3998  -13.0820   -9.5107   -8.9137
   115.000   -7.2094  -12.5819   -9.2582   -8.6506
   116.000   -7.0199  -12.1011   -9.0055   -8.3904
   117.000   -6.8316  -11.6385   -8.7533   -8.1331
   118.000   -6.6444  -11.1927   -8.5018   -7.8790
   119.000   -6.4586  -10.7630   -8.2516   -7.6283
   120.000   -6.2742  -10.3482   -8.0030   -7.3809
   121.000   -6.0914   -9.9476   -7.7563   -7.1371
   122.000   -5.9103   -9.5606   -7.5118   -6.8969
   123.000   -5.7310   -9.1863   -7.2698   -6.6604
   124.000   -5.5535   -8.8242   -7.0306   -6.4277
   125.000   -5.3780   -8.4738   -6.7943   -6.1989
   126.000   -5.2044   -8.1345   -6.5612   -5.9740
   127.000   -5.0330   -7.8059   -6.3313   -5.7531
   128.000   -4.8638   -7.4876   -6.1049   -5.5362
   129.000   -4.6968   -7.1792   -5.8821   -5.3234
   130.000   -4.5321   -6.8803   -5.6630   -5.1146
   131.000   -4.3698   -6.5906   -5.4477   -4.9100
   132.000   -4.2099   -6.3098   -5.2362   -4.7095
   133.000   -4.0524   -6.0376   -5.0287   -4.5132
   134.000   -3.8975   -5.7737   -4.8253   -4.3210
   135.000   -3.7452   -5.5180   -4.6259   -4.1331
   136.000   -3.5954   -5.2701   -4.4306   -3.9494
   137.000   -3.4484   -5.0299   -4.2395   -3.7698
   138.000   -3.3040   -4.7972   -4.0525   -3.5945
   139.000   -3.1624   -4.5718   -3.8698   -3.4235
   140.000   -3.0235   -4.3535   -3.6914   -3.2566
   141.000   -2.8875   -4.1421   -3.5172   -3.0940
   142.000   -2.7543   -3.9376   -3.3473   -2.9356
   143.000   -2.6240   -3.7398   -3.1816   -2.7814
   144.000   -2.4967   -3.5485   -3.0203   -2.6315
   145.000   -2.3722   -3.3636   -2.8633   -2.4858
   146.000   -2.2508   -3.1851   -2.7106   -2.3443
   147.000   -2.1323   -3.0127   -2.5622   -2.2070
   148.000   -2.0168   -2.8465   -2.4182   -2.0740
   149.000   -1.9045   -2.6863   -2.2784   -1.9451
   150.000   -1.7951   -2.5320   -2.1430   -1.8204
   151.000   -1.6889   -2.3835   -2.0118   -1.6999
   152.000   -1.5858   -2.2408   -1.8850   -1.5836
   153.000   -1.4858   -2.1038   -1.7625   -1.4715
   154.000   -1.3890   -1.9724   -1.6443   -1.3636
   155.000   -1.2953   -1.8466   -1.5303   -1.2598
   156.000   -1.2049   -1.7262   -1.4207   -1.1602
   157.000   -1.1176   -1.6113   -1.3153   -1.0647
   158.000   -1.0335   -1.5018   -1.2142   -0.9734
   159.000   -0.9527   -1.3977   -1.1174   -0.8862
   160.000   -0.8751   -1.2988   -1.0248   -0.8032
   161.000   -0.8008   -1.2052   -0.9364   -0.7242
   162.000   -0.7297   -1.1168   -0.8523   -0.6494
   163.000   -0.6619   -1.0335   -0.7725   -0.5787
   164.000   -0.5974   -0.9554   -0.6968   -0.5121
   165.000   -0.5362   -0.8825   -0.6254   -0.4496
   166.000   -0.4783   -0.8146   -0.5582   -0.3912
   167.000   -0.4236   -0.7517   -0.4952   -0.3369
   168.000   -0.3723   -0.6939   -0.4364   -0.2867
   169.000   -0.3243   -0.6411   -0.3818   -0.2405
   170.000   -0.2796   -0.5933   -0.3313   -0.1984
   171.000   -0.2382   -0.5504   -0.2850   -0.1604
   172.000   -0.2002   -0.5125   -0.2429   -0.1264
   173.000   -0.1654   -0.4796   -0.2050   -0.0965
   174.000   -0.1340   -0.4515   -0.1712   -0.0706
   175.000   -0.1059   -0.4284   -0.1415   -0.0488
   176.000   -0.0811   -0.4102   -0.1160   -0.0310
   177.000   -0.0596   -0.3969   -0.0946   -0.0172
   178.000   -0.0414   -0.3885   -0.0774   -0.0075
   179.000   -0.0266   -0.3850   -0.0642   -0.0017
   180.000   -0.0150   -0.3864   -0.0552    0.0000
   181.000   -0.0067   -0.3927   -0.0502   -0.0023
   182.000   -0.0017   -0.4039   -0.0494   -0.0086
   183.000    0.0000   -0.4200   -0.0526   -0.0188
   184.000   -0.0015   -0.4410   -0.0599   -0.0331
   185.000   -0.0064   -0.4669   -0.0713   -0.0514
   186.000   -0.0144   -0.4978   -0.0867   -0.0736
   187.000   -0.0257   -0.5336   -0.1062   -0.0998
   188.000   -0.0402   -0.5744   -0.1297   -0.1299
   189.000   -0.0579   -0.6201   -0.1573   -0.1640
   190.000   -0.0789   -0.6708   -0.1889   -0.2021
   191.000   -0.1030   -0.7265   -0.2245   -0.2441
   192.000   -0.1302   -0.7873   -0.2642   -0.2901
   193.000   -0.1607   -0.8531   -0.3078   -0.3399
   194.000   -0.1942   -0.9240   -0.3554   -0.3937
   195.000   -0.2309   -1.0000   -0.4070   -0.4514
   196.000   -0.2706   -1.0811   -0.4626   -0.5130
   197.000   -0.3134   -1.1674   -0.5221   -0.5785
   198.000   -0.3593   -1.2589   -0.5855   -0.6479
   199.000   -0.4082   -1.3557   -0.6529   -0.7212
   200.000   -0.4601   -1.4578   -0.7242   -0.7983
   201.000   -0.5150   -1.5652   -0.7994   -0.8793
   202.000   -0.5728   -1.6779   -0.8785   -0.9641
   203.000   -0.6335   -1.7961   -0.9614   -1.0527
   204.000   -0.6972   -1.9198   -1.0482   -1.1451
   205.000   -0.7637   -2.0491   -1.1388   -1.2413
   206.000   -0.8330   -2.1839   -1.2332   -1.3413
   207.000   -0.9052   -2.3245   -1.3314   -1.4451
   208.000   -0.9801   -2.4707   -1.4334   -1.5525
   209.000   -1.0578   -2.6228   -1.5390   -1.6637
   210.000   -1.1382   -2.7808   -1.6484   -1.7786
   211.000   -1.2212   -2.9448   -1.7615   -1.8972
   212.000   -1.3069   -3.1148   -1.8782   -2.0194
   213.000   -1.3952   -3.2911   -1.9985   -2.1452
   214.000   -1.4860   -3.4735   -2.1224   -2.2746
   215.000   -1.5793   -3.6624   -2.2498   -2.4075
   216.000   -1.6752   -3.8578   -2.3807   -2.5440
   217.000   -1.7734   -4.0598   -2.5150   -2.6839
   218.000   -1.8741   -4.2685   -2.6527   -2.8272
   219.000   -1.9771   -4.4841   -2.7938   -2.9740
   220.000   -2.0824   -4.7068   -2.9381   -3.1240
   221.000   -2.1899   -4.9367   -3.0856   -3.2774
   222.000   -2.2997   -5.1740   -3.2363   -3.4340
   223.000   -2.4116   -5.4188   -3.3901   -3.5938
   224.000   -2.5256   -5.6714   -3.5468   -3.7566
   225.000   -2.6417   -5.9320   -3.7065   -3.9226
   226.000   -2.7598   -6.2007   -3.8690   -4.0914
   227.000   -2.8798   -6.4779   -4.0343   -4.2632
   228.000   -3.0018   -6.7639   -4.2021   -4.4377
   229.000   -3.1255   -7.0588   -4.3725   -4.6150
   230.000   -3.2511   -7.3630   -4.5454   -4.7949
   231.000   -3.3783   -7.6769   -4.7205   -4.9772
   232.000   -3.5073   -8.0007   -4.8977   -5.1620
   233.000   -3.6378   -8.3350   -5.0770   -5.3490
   234.000   -3.7699   -8.6801   -5.2582   -5.5381
   235.000   -3.9035   -9.0364   -5.4410   -5.7293
   236.000   -4.0384   -9.4046   -5.6255   -5.9223
   237.000   -4.1747   -9.7851   -5.8113   -6.1170
   238.000   -4.3123  -10.1785   -5.9984   -6.3133
   239.000   -4.4512  -10.5856   -6.1864   -6.5109
   240.000   -4.5911  -11.0071   -6.3753   -6.7098
   241.000   -4.7322  -11.4438   -6.5649   -6.9096
   242.000   -4.8742  -11.8966   -6.7548   -7.1102
   243.000   -5.0171  -12.3667   -6.9449   -7.3115
   244.000   -5.1610  -12.8550   -7.1351   -7.5131
   245.000   -5.3055  -13.3630   -7.3249   -7.7148
   246.000   -5.4508  -13.8922   -7.5143   -7.9165
   247.000   -5.5967  -14.4442   -7.7030   -8.1178
   248.000   -5.7431  -15.0210   -7.8908   -8.3185
   249.000   -5.8899  -15.6249   -8.0773   -8.5184
   250.000   -6.0371  -16.2585   -8.2624   -8.7172
   251.000   -6.1845  -16.9248   -8.4459   -8.9147
   252.000   -6.3321  -17.6275   -8.6275   -9.1104
   253.000   -6.4797  -18.3709   -8.8070   -9.3042
   254.000   -6.6272  -19.1603   -8.9841   -9.4958
   255.000   -6.7746  -20.0021   -9.1588   -9.6849
   256.000   -6.9217  -20.9042   -9.3307   -9.8712
   257.000   -7.0684  -21.8763   -9.4997  -10.0544
   258.000   -7.2145  -22.9309   -9.6656  -10.2343
   259.000   -7.3599  -24.0839   -9.8283  -10.4105
   260.000   -7.5045  -25.3559   -9.9876  -10.5827
   261.000   -7.6481  -26.7734  -10.1433  -10.7507
   262.000   -7.7906  -28.3694  -10.2955  -10.9141
   263.000   -7.9317  -30.0000  -10.4439  -11.0728
   264.000   -8.0713  -30.0000  -10.5885  -11.2264
   265.000   -8.2092  -30.0000  -10.7292  -11.3746
   266.000   -8.3452  -30.0000  -10.8660  -11.5172
   267.000   -8.4791  -30.0000  -10.9987  -11.6538
   268.000   -8.6106  -30.0000  -11.1273  -11.7843
   269.000   -8.7394  -30.0000  -11.2519  -11.9082
   270.000   -8.8654  -30.0000  -11.3722  -12.0254
   271.000   -8.9882  -30.0000  -11.4883  -12.1355
   272.000   -9.1075  -29.3239  -11.6000  -12.2383
   273.000   -9.2231  -28.1690  -11.7074  -12.3335
   274.000   -9.3347  -27.1689  -11.8103  -12.4207
   275.000   -9.4418  -26.2934  -11.9086  -12.4997
   276.000   -9.5442  -25.5184  -12.0022  -12.5701
   277.000   -9.6415  -24.8252  -12.0908  -12.6317
   278.000   -9.7334  -24.1990  -12.1744  -12.6842
   279.000   -9.8194  -23.6280  -12.2526  -12.7273
   280.000   -9.8994  -23.1025  -12.3253  -12.7607
   281.000   -9.9728  -22.6146  -12.3921  -12.7841
   282.000  -10.0394  -22.1578  -12.4528  -12.7974
   283.000  -10.0989  -21.7265  -12.5070  -12.8004
   284.000  -10.1508  -21.3160  -12.5543  -12.7928
   285.000  -10.1950  -20.9225  -12.5943  -12.7745
   286.000  -10.2312  -20.5424  -12.6267  -12.7455
   287.000  -10.2591  -20.1729  -12.6510  -12.7058
   288.000  -10.2785  -19.8116  -12.6668  -12.6553
   289.000  -10.2893  -19.4565  -12.6737  -12.5943
   290.000  -10.2914  -19.1059  -12.6713  -12.5227
   291.000  -10.2847  -18.7585  -12.6592  -12.4410
   292.000  -10.2693  -18.4133  -12.6372  -12.3492
   293.000  -10.2450  -18.0695  -12.6050  -12.2478
   294.000  -10.2121  -17.7267  -12.5623  -12.1372
   295.000  -10.1707  -17.3844  -12.5091  -12.0178
   296.000  -10.1210  -17.0426  -12.4452  -11.8902
   297.000  -10.0632  -16.7013  -12.3707  -11.7547
   298.000   -9.9975  -16.3606  -12.2858  -11.6120
   299.000   -9.9244  -16.0207  -12.1905  -11.4627
   300.000   -9.8442  -15.6820  -12.0853  -11.3074
   301.000   -9.7572  -15.3449  -11.9704  -11.1466
   302.000   -9.6638  -15.0097  -11.8464  -10.9810
   303.000   -9.5646  -14.6768  -11.7136  -10.8112
   304.000   -9.4599  -14.3466  -11.5728  -10.6378
   305.000   -9.3502  -14.0196  -11.4244  -10.4613
   306.000   -9.2360  -13.6962  -11.2691  -10.2824
   307.000   -9.1176  -13.3766  -11.1076  -10.1015
   308.000   -8.9957  -13.0614  -10.9406   -9.9192
   309.000   -8.8705  -12.7507  -10.7688   -9.7359
   310.000   -8.7426  -12.4449  -10.5928   -9.5522
   311.000   -8.6124  -12.1443  -10.4133   -9.3685
   312.000   -8.4803  -11.8491  -10.2310   -9.1851
   313.000   -8.3466  -11.5594  -10.0465   -9.0025
   314.000   -8.2118  -11.2755   -9.8604   -8.8211
   315.000   -8.0763  -10.9976   -9.6733   -8.6411
   316.000   -7.9403  -10.7257   -9.4856   -8.4628
   317.000   -7.8042  -10.4601   -9.2981   -8.2866
   318.000   -7.6683  -10.2007   -9.1110   -8.1128
   319.000   -7.5329   -9.9476   -8.9248   -7.9414
   320.000   -7.3983   -9.7009   -8.7399   -7.7728
   321.000   -7.2647   -9.4607   -8.5568   -7.6072
   322.000   -7.1323   -9.2270   -8.3757   -7.4448
   323.000   -7.0014   -8.9998   -8.1970   -7.2856
   324.000   -6.8722   -8.7791   -8.0208   -7.1299
   325.000   -6.7449   -8.5649   -7.8476   -6.9778
   326.000   -6.6195   -8.3573   -7.6775   -6.8295
   327.000   -6.4964   -8.1562   -7.5107   -6.6850
   328.000   -6.3757   -7.9616   -7.3475   -6.5444
   329.000   -6.2575   -7.7734   -7.1879   -6.4079
   330.000   -6.1419   -7.5918   -7.0321   -6.2755
   331.000   -6.0290   -7.4165   -6.8804   -6.1473
   332.000   -5.9191   -7.2477   -6.7327   -6.0233
   333.000   -5.8120   -7.0853   -6.5891   -5.9037
   334.000   -5.7081   -6.9292   -6.4499   -5.7885
   335.000   -5.6073   -6.7795   -6.3151   -5.6777
   336.000   -5.5097   -6.6361   -6.1847   -5.5714
   337.000   -5.4155   -6.4989   -6.0588   -5.4697
   338.000   -5.3246   -6.3680   -5.9374   -5.3725
   339.000   -5.2371   -6.2433   -5.8207   -5.2799
   340.000   -5.1532   -6.1247   -5.7086   -5.1919
   341.000   -5.0727   -6.0123   -5.6012   -5.1086
   342.000   -4.9959   -5.9061   -5.4986   -5.0300
   343.000   -4.9227   -5.8059   -5.4006   -4.9561
   344.000   -4.8532   -5.7119   -5.3075   -4.8869
   345.000   -4.7874   -5.6238   -5.2191   -4.8225
   346.000   -4.7254   -5.5418   -5.1356   -4.7628
   347.000   -4.6671   -5.4658   -5.0569   -4.7080
   348.000   -4.6127   -5.3958   -4.9829   -4.6579
   349.000   -4.5620   -5.3318   -4.9139   -4.6126
   350.000   -4.5153   -5.2737   -4.8496   -4.5722
   351.000   -4.4723   -5.2215   -4.7902   -4.5366
   352.000   -4.4333   -5.1753   -4.7356   -4.5059
   353.000   -4.3982   -5.1350   -4.6859   -4.4800
   354.000   -4.3670   -5.1005   -4.6410   -4.4591
   355.000   -4.3398   -5.0720   -4.6009   -4.4430
   356.000   -4.3165   -5.0493   -4.5657   -4.4318
   357.000   -4.2971   -5.0325   -4.5353   -4.4255
   358.000   -4.2817   -5.0216   -4.5097   -4.4241
   359.000   -4.2703   -5.0166   -4.4889   -4.4277
   360.000   -4.2628   -5.0174   -4.4729   -4.4362




  É” = 0.000 Åãplane
   É∆(deg)       EÉ”       EÉ∆       ER        EL 
     0.000   -0.0008   -0.1684   -0.1009    0.0000
     1.000   -0.0056   -0.1698   -0.1038   -0.0035
     2.000   -0.0144   -0.1769   -0.1114   -0.0117
     3.000   -0.0272   -0.1895   -0.1238   -0.0247
     4.000   -0.0440   -0.2077   -0.1410   -0.0424
     5.000   -0.0648   -0.2315   -0.1631   -0.0649
     6.000   -0.0897   -0.2609   -0.1899   -0.0922
     7.000   -0.1185   -0.2959   -0.2216   -0.1243
     8.000   -0.1513   -0.3367   -0.2581   -0.1612
     9.000   -0.1881   -0.3830   -0.2994   -0.2028
    10.000   -0.2290   -0.4351   -0.3456   -0.2493
    11.000   -0.2738   -0.4929   -0.3967   -0.3006
    12.000   -0.3227   -0.5565   -0.4525   -0.3567
    13.000   -0.3756   -0.6258   -0.5133   -0.4177
    14.000   -0.4324   -0.7009   -0.5790   -0.4835
    15.000   -0.4933   -0.7819   -0.6495   -0.5542
    16.000   -0.5582   -0.8688   -0.7250   -0.6298
    17.000   -0.6271   -0.9617   -0.8054   -0.7103
    18.000   -0.7000   -1.0606   -0.8907   -0.7956
    19.000   -0.7769   -1.1655   -0.9810   -0.8860
    20.000   -0.8579   -1.2765   -1.0763   -0.9813
    21.000   -0.9428   -1.3937   -1.1765   -1.0815
    22.000   -1.0318   -1.5171   -1.2818   -1.1868
    23.000   -1.1248   -1.6469   -1.3922   -1.2971
    24.000   -1.2218   -1.7831   -1.5076   -1.4124
    25.000   -1.3228   -1.9257   -1.6281   -1.5328
    26.000   -1.4278   -2.0749   -1.7537   -1.6582
    27.000   -1.5369   -2.2308   -1.8844   -1.7888
    28.000   -1.6500   -2.3934   -2.0203   -1.9246
    29.000   -1.7672   -2.5630   -2.1614   -2.0655
    30.000   -1.8883   -2.7395   -2.3078   -2.2117
    31.000   -2.0136   -2.9232   -2.4594   -2.3631
    32.000   -2.1429   -3.1141   -2.6163   -2.5198
    33.000   -2.2763   -3.3125   -2.7786   -2.6818
    34.000   -2.4138   -3.5184   -2.9462   -2.8491
    35.000   -2.5553   -3.7320   -3.1193   -3.0219
    36.000   -2.7010   -3.9535   -3.2978   -3.2001
    37.000   -2.8508   -4.1832   -3.4818   -3.3837
    38.000   -3.0048   -4.4211   -3.6713   -3.5729
    39.000   -3.1630   -4.6676   -3.8665   -3.7677
    40.000   -3.3253   -4.9228   -4.0673   -3.9681
    41.000   -3.4919   -5.1870   -4.2737   -4.1741
    42.000   -3.6627   -5.4605   -4.4860   -4.3859
    43.000   -3.8379   -5.7436   -4.7040   -4.6034
    44.000   -4.0174   -6.0366   -4.9279   -4.8267
    45.000   -4.2013   -6.3398   -5.1578   -5.0560
    46.000   -4.3896   -6.6536   -5.3936   -5.2912
    47.000   -4.5824   -6.9784   -5.6355   -5.5323
    48.000   -4.7798   -7.3147   -5.8835   -5.7796
    49.000   -4.9818   -7.6628   -6.1377   -6.0329
    50.000   -5.1885   -8.0234   -6.3981   -6.2925
    51.000   -5.4000   -8.3971   -6.6650   -6.5583
    52.000   -5.6164   -8.7843   -6.9383   -6.8305
    53.000   -5.8378   -9.1858   -7.2181   -7.1091
    54.000   -6.0643   -9.6023   -7.5045   -7.3942
    55.000   -6.2961  -10.0348   -7.7976   -7.6858
    56.000   -6.5333  -10.4839   -8.0976   -7.9841
    57.000   -6.7761  -10.9509   -8.4045   -8.2891
    58.000   -7.0246  -11.4369   -8.7184   -8.6010
    59.000   -7.2790  -11.9430   -9.0395   -8.9198
    60.000   -7.5397  -12.4707   -9.3679   -9.2456
    61.000   -7.8067  -13.0217   -9.7038   -9.5786
    62.000   -8.0804  -13.5978  -10.0472   -9.9188
    63.000   -8.3612  -14.2010  -10.3985  -10.2665
    64.000   -8.6492  -14.8339  -10.7577  -10.6217
    65.000   -8.9450  -15.4993  -11.1250  -10.9845
    66.000   -9.2489  -16.2004  -11.5007  -11.3553
    67.000   -9.5615  -16.9411  -11.8851  -11.7341
    68.000   -9.8832  -17.7262  -12.2784  -12.1213
    69.000  -10.2146  -18.5612  -12.6809  -12.5170
    70.000  -10.5564  -19.4532  -13.0930  -12.9215
    71.000  -10.9093  -20.4106  -13.5151  -13.3353
    72.000  -11.2742  -21.4445  -13.9477  -13.7587
    73.000  -11.6521  -22.5689  -14.3913  -14.1922
    74.000  -12.0440  -23.8029  -14.8466  -14.6364
    75.000  -12.4511  -25.1723  -15.3142  -15.0920
    76.000  -12.8749  -26.7141  -15.7949  -15.5598
    77.000  -13.3170  -28.4840  -16.2898  -16.0407
    78.000  -13.7792  -30.0000  -16.7998  -16.5360
    79.000  -14.2638  -30.0000  -17.3264  -17.0470
    80.000  -14.7732  -30.0000  -17.8708  -17.5755
    81.000  -15.3106  -30.0000  -18.4349  -18.1235
    82.000  -15.8794  -30.0000  -19.0204  -18.6937
    83.000  -16.4839  -30.0000  -19.6296  -19.2890
    84.000  -17.1294  -30.0000  -20.2647  -19.9133
    85.000  -17.8220  -30.0000  -20.9282  -20.5713
    86.000  -18.5696  -30.0000  -21.6227  -21.2689
    87.000  -19.3820  -30.0000  -22.3504  -22.0136
    88.000  -20.2717  -30.0000  -23.1129  -22.8149
    89.000  -21.2548  -30.0000  -23.9098  -23.6854
    90.000  -22.3526  -30.0000  -24.7375  -24.6417
    91.000  -23.5931  -29.8443  -25.5859  -25.7065
    92.000  -25.0138  -29.4937  -26.4339  -26.9120
    93.000  -26.6626  -29.2757  -27.2431  -28.3054
    94.000  -28.5899  -29.1788  -27.9513  -29.9605
    95.000  -30.0000  -29.1966  -28.4734  -30.0000
    96.000  -30.0000  -29.3259  -28.7201  -30.0000
    97.000  -30.0000  -29.5665  -28.6359  -30.0000
    98.000  -30.0000  -29.9202  -28.2311  -30.0000
    99.000  -30.0000  -30.0000  -27.5758  -30.0000
   100.000  -28.4717  -30.0000  -26.7618  -30.0000
   101.000  -26.5468  -30.0000  -25.8689  -30.0000
   102.000  -24.8988  -30.0000  -24.9526  -30.0000
   103.000  -23.4770  -30.0000  -24.0460  -29.6952
   104.000  -22.2340  -30.0000  -23.1669  -27.8818
   105.000  -21.1328  -30.0000  -22.3233  -26.3478
   106.000  -20.1456  -30.0000  -21.5180  -25.0149
   107.000  -19.2516  -30.0000  -20.7509  -23.8333
   108.000  -18.4348  -30.0000  -20.0204  -22.7697
   109.000  -17.6829  -29.5881  -19.3241  -21.8006
   110.000  -16.9864  -28.1139  -18.6598  -20.9089
   111.000  -16.3374  -26.7102  -18.0248  -20.0820
   112.000  -15.7298  -25.3974  -17.4170  -19.3100
   113.000  -15.1584  -24.1774  -16.8344  -18.5854
   114.000  -14.6192  -23.0447  -16.2749  -17.9021
   115.000  -14.1086  -21.9915  -15.7370  -17.2552
   116.000  -13.6236  -21.0095  -15.2191  -16.6407
   117.000  -13.1618  -20.0912  -14.7200  -16.0553
   118.000  -12.7209  -19.2300  -14.2383  -15.4962
   119.000  -12.2993  -18.4198  -13.7731  -14.9612
   120.000  -11.8952  -17.6556  -13.3234  -14.4481
   121.000  -11.5073  -16.9329  -12.8884  -13.9554
   122.000  -11.1345  -16.2481  -12.4673  -13.4815
   123.000  -10.7755  -15.5978  -12.0594  -13.0252
   124.000  -10.4296  -14.9791  -11.6641  -12.5854
   125.000  -10.0958  -14.3896  -11.2810  -12.1610
   126.000   -9.7735  -13.8270  -10.9094  -11.7512
   127.000   -9.4620  -13.2893  -10.5489  -11.3553
   128.000   -9.1607  -12.7750  -10.1991  -10.9725
   129.000   -8.8691  -12.2824   -9.8596  -10.6023
   130.000   -8.5868  -11.8102   -9.5301  -10.2440
   131.000   -8.3132  -11.3572   -9.2103   -9.8972
   132.000   -8.0481  -10.9222   -8.8998   -9.5613
   133.000   -7.7911  -10.5044   -8.5984   -9.2361
   134.000   -7.5419  -10.1028   -8.3059   -8.9211
   135.000   -7.3002   -9.7166   -8.0220   -8.6160
   136.000   -7.0658   -9.3451   -7.7465   -8.3204
   137.000   -6.8384   -8.9876   -7.4792   -8.0340
   138.000   -6.6178   -8.6435   -7.2199   -7.7566
   139.000   -6.4039   -8.3122   -6.9684   -7.4880
   140.000   -6.1965   -7.9933   -6.7247   -7.2279
   141.000   -5.9954   -7.6863   -6.4884   -6.9760
   142.000   -5.8004   -7.3906   -6.2596   -6.7323
   143.000   -5.6115   -7.1060   -6.0380   -6.4964
   144.000   -5.4286   -6.8321   -5.8235   -6.2683
   145.000   -5.2514   -6.5685   -5.6161   -6.0478
   146.000   -5.0800   -6.3149   -5.4155   -5.8347
   147.000   -4.9142   -6.0710   -5.2218   -5.6288
   148.000   -4.7540   -5.8366   -5.0348   -5.4302
   149.000   -4.5992   -5.6113   -4.8544   -5.2385
   150.000   -4.4499   -5.3950   -4.6806   -5.0538
   151.000   -4.3058   -5.1875   -4.5132   -4.8758
   152.000   -4.1671   -4.9886   -4.3522   -4.7046
   153.000   -4.0336   -4.7979   -4.1975   -4.5400
   154.000   -3.9053   -4.6155   -4.0490   -4.3819
   155.000   -3.7821   -4.4411   -3.9067   -4.2302
   156.000   -3.6640   -4.2746   -3.7706   -4.0850
   157.000   -3.5510   -4.1158   -3.6405   -3.9460
   158.000   -3.4430   -3.9646   -3.5165   -3.8132
   159.000   -3.3399   -3.8209   -3.3984   -3.6866
   160.000   -3.2419   -3.6845   -3.2863   -3.5661
   161.000   -3.1488   -3.5554   -3.1801   -3.4516
   162.000   -3.0606   -3.4335   -3.0797   -3.3431
   163.000   -2.9773   -3.3187   -2.9852   -3.2405
   164.000   -2.8988   -3.2108   -2.8964   -3.1439
   165.000   -2.8252   -3.1098   -2.8134   -3.0531
   166.000   -2.7565   -3.0157   -2.7361   -2.9681
   167.000   -2.6926   -2.9284   -2.6645   -2.8889
   168.000   -2.6335   -2.8478   -2.5986   -2.8154
   169.000   -2.5792   -2.7738   -2.5384   -2.7477
   170.000   -2.5296   -2.7065   -2.4838   -2.6856
   171.000   -2.4849   -2.6457   -2.4348   -2.6292
   172.000   -2.4449   -2.5914   -2.3915   -2.5784
   173.000   -2.4097   -2.5437   -2.3537   -2.5333
   174.000   -2.3793   -2.5024   -2.3216   -2.4937
   175.000   -2.3536   -2.4675   -2.2950   -2.4597
   176.000   -2.3327   -2.4391   -2.2740   -2.4313
   177.000   -2.3165   -2.4170   -2.2586   -2.4084
   178.000   -2.3050   -2.4014   -2.2487   -2.3911
   179.000   -2.2983   -2.3921   -2.2445   -2.3792
   180.000   -2.2964   -2.3892   -2.2458   -2.3730
   181.000   -2.2992   -2.3926   -2.2526   -2.3722
   182.000   -2.3068   -2.4024   -2.2651   -2.3770
   183.000   -2.3191   -2.4186   -2.2832   -2.3873
   184.000   -2.3361   -2.4411   -2.3068   -2.4031
   185.000   -2.3580   -2.4701   -2.3361   -2.4244
   186.000   -2.3845   -2.5055   -2.3710   -2.4512
   187.000   -2.4159   -2.5473   -2.4116   -2.4836
   188.000   -2.4521   -2.5956   -2.4579   -2.5216
   189.000   -2.4930   -2.6504   -2.5098   -2.5651
   190.000   -2.5388   -2.7117   -2.5674   -2.6142
   191.000   -2.5894   -2.7796   -2.6308   -2.6689
   192.000   -2.6447   -2.8541   -2.6999   -2.7292
   193.000   -2.7050   -2.9353   -2.7749   -2.7951
   194.000   -2.7701   -3.0232   -2.8557   -2.8667
   195.000   -2.8401   -3.1179   -2.9423   -2.9440
   196.000   -2.9149   -3.2195   -3.0349   -3.0269
   197.000   -2.9947   -3.3280   -3.1334   -3.1157
   198.000   -3.0794   -3.4435   -3.2379   -3.2102
   199.000   -3.1691   -3.5660   -3.3484   -3.3105
   200.000   -3.2638   -3.6958   -3.4651   -3.4167
   201.000   -3.3635   -3.8329   -3.5879   -3.5287
   202.000   -3.4682   -3.9773   -3.7169   -3.6468
   203.000   -3.5781   -4.1293   -3.8522   -3.7708
   204.000   -3.6930   -4.2889   -3.9939   -3.9008
   205.000   -3.8131   -4.4562   -4.1419   -4.0370
   206.000   -3.9385   -4.6315   -4.2965   -4.1793
   207.000   -4.0690   -4.8148   -4.4577   -4.3279
   208.000   -4.2049   -5.0064   -4.6255   -4.4828
   209.000   -4.3462   -5.2064   -4.8001   -4.6440
   210.000   -4.4928   -5.4150   -4.9816   -4.8118
   211.000   -4.6450   -5.6324   -5.1700   -4.9860
   212.000   -4.8027   -5.8589   -5.3656   -5.1669
   213.000   -4.9661   -6.0946   -5.5683   -5.3546
   214.000   -5.1352   -6.3399   -5.7784   -5.5491
   215.000   -5.3101   -6.5950   -5.9960   -5.7506
   216.000   -5.4909   -6.8603   -6.2212   -5.9591
   217.000   -5.6778   -7.1360   -6.4542   -6.1749
   218.000   -5.8708   -7.4225   -6.6952   -6.3980
   219.000   -6.0701   -7.7203   -6.9443   -6.6286
   220.000   -6.2758   -8.0296   -7.2018   -6.8669
   221.000   -6.4881   -8.3511   -7.4678   -7.1131
   222.000   -6.7072   -8.6852   -7.7426   -7.3673
   223.000   -6.9332   -9.0323   -8.0264   -7.6297
   224.000   -7.1663   -9.3933   -8.3194   -7.9006
   225.000   -7.4068   -9.7686   -8.6220   -8.1802
   226.000   -7.6550  -10.1590   -8.9345   -8.4687
   227.000   -7.9110  -10.5654   -9.2571   -8.7665
   228.000   -8.1753  -10.9886   -9.5902   -9.0739
   229.000   -8.4480  -11.4295   -9.9341   -9.3911
   230.000   -8.7296  -11.8894  -10.2894   -9.7186
   231.000   -9.0205  -12.3694  -10.6563  -10.0568
   232.000   -9.3212  -12.8710  -11.0355  -10.4061
   233.000   -9.6320  -13.3956  -11.4273  -10.7671
   234.000   -9.9536  -13.9452  -11.8323  -11.1402
   235.000  -10.2866  -14.5217  -12.2512  -11.5261
   236.000  -10.6317  -15.1275  -12.6845  -11.9255
   237.000  -10.9895  -15.7653  -13.1329  -12.3392
   238.000  -11.3610  -16.4384  -13.5972  -12.7680
   239.000  -11.7471  -17.1506  -14.0781  -13.2130
   240.000  -12.1489  -17.9064  -14.5765  -13.6752
   241.000  -12.5675  -18.7112  -15.0932  -14.1560
   242.000  -13.0043  -19.5717  -15.6292  -14.6569
   243.000  -13.4609  -20.4963  -16.1852  -15.1795
   244.000  -13.9390  -21.4955  -16.7623  -15.7260
   245.000  -14.4404  -22.5830  -17.3610  -16.2986
   246.000  -14.9676  -23.7769  -17.9820  -16.9002
   247.000  -15.5229  -25.1021  -18.6254  -17.5342
   248.000  -16.1091  -26.5940  -19.2909  -18.2045
   249.000  -16.7296  -28.3058  -19.9769  -18.9161
   250.000  -17.3877  -30.0000  -20.6807  -19.6750
   251.000  -18.0872  -30.0000  -21.3973  -20.4889
   252.000  -18.8318  -30.0000  -22.1181  -21.3671
   253.000  -19.6251  -30.0000  -22.8305  -22.3219
   254.000  -20.4692  -30.0000  -23.5155  -23.3694
   255.000  -21.3635  -30.0000  -24.1476  -24.5305
   256.000  -22.3012  -30.0000  -24.6950  -25.8341
   257.000  -23.2639  -30.0000  -25.1226  -27.3188
   258.000  -24.2121  -30.0000  -25.3987  -29.0370
   259.000  -25.0742  -30.0000  -25.5038  -30.0000
   260.000  -25.7414  -30.0000  -25.4362  -30.0000
   261.000  -26.0886  -30.0000  -25.2133  -30.0000
   262.000  -26.0341  -30.0000  -24.8650  -30.0000
   263.000  -25.5944  -29.7434  -24.4255  -30.0000
   264.000  -24.8721  -29.3411  -23.9264  -30.0000
   265.000  -23.9918  -29.0761  -23.3932  -30.0000
   266.000  -23.0515  -28.9366  -22.8447  -29.6484
   267.000  -22.1115  -28.9164  -22.2936  -27.9761
   268.000  -21.2035  -29.0142  -21.7479  -26.5434
   269.000  -20.3415  -29.2329  -21.2126  -25.2956
   270.000  -19.5299  -29.5800  -20.6900  -24.1918
   271.000  -18.7679  -30.0000  -20.1813  -23.2017
   272.000  -18.0530  -30.0000  -19.6865  -22.3030
   273.000  -17.3813  -30.0000  -19.2051  -21.4788
   274.000  -16.7491  -30.0000  -18.7363  -20.7163
   275.000  -16.1525  -30.0000  -18.2793  -20.0052
   276.000  -15.5882  -30.0000  -17.8331  -19.3378
   277.000  -15.0531  -30.0000  -17.3966  -18.7077
   278.000  -14.5442  -30.0000  -16.9691  -18.1098
   279.000  -14.0593  -30.0000  -16.5497  -17.5398
   280.000  -13.5961  -30.0000  -16.1378  -16.9944
   281.000  -13.1527  -30.0000  -15.7326  -16.4708
   282.000  -12.7273  -30.0000  -15.3338  -15.9665
   283.000  -12.3185  -28.9497  -14.9409  -15.4796
   284.000  -11.9250  -27.2127  -14.5535  -15.0085
   285.000  -11.5455  -25.6699  -14.1713  -14.5517
   286.000  -11.1790  -24.2855  -13.7943  -14.1081
   287.000  -10.8246  -23.0310  -13.4222  -13.6766
   288.000  -10.4814  -21.8844  -13.0549  -13.2565
   289.000  -10.1487  -20.8286  -12.6925  -12.8470
   290.000   -9.8258  -19.8501  -12.3347  -12.4475
   291.000   -9.5121  -18.9384  -11.9818  -12.0574
   292.000   -9.2071  -18.0850  -11.6336  -11.6764
   293.000   -8.9102  -17.2828  -11.2903  -11.3039
   294.000   -8.6211  -16.5263  -10.9518  -10.9398
   295.000   -8.3394  -15.8105  -10.6182  -10.5836
   296.000   -8.0646  -15.1315  -10.2895  -10.2351
   297.000   -7.7965  -14.4860   -9.9659   -9.8941
   298.000   -7.5348  -13.8709   -9.6474   -9.5604
   299.000   -7.2793  -13.2838   -9.3340   -9.2338
   300.000   -7.0296  -12.7226   -9.0258   -8.9142
   301.000   -6.7856  -12.1851   -8.7228   -8.6014
   302.000   -6.5472  -11.6699   -8.4251   -8.2952
   303.000   -6.3140  -11.1754   -8.1327   -7.9957
   304.000   -6.0860  -10.7003   -7.8456   -7.7026
   305.000   -5.8630  -10.2435   -7.5639   -7.4159
   306.000   -5.6449   -9.8038   -7.2876   -7.1354
   307.000   -5.4316   -9.3803   -7.0167   -6.8612
   308.000   -5.2230   -8.9722   -6.7511   -6.5930
   309.000   -5.0190   -8.5786   -6.4911   -6.3309
   310.000   -4.8195   -8.1990   -6.2364   -6.0748
   311.000   -4.6244   -7.8326   -5.9871   -5.8246
   312.000   -4.4337   -7.4789   -5.7433   -5.5802
   313.000   -4.2472   -7.1372   -5.5049   -5.3417
   314.000   -4.0651   -6.8073   -5.2719   -5.1088
   315.000   -3.8871   -6.4885   -5.0443   -4.8817
   316.000   -3.7133   -6.1805   -4.8221   -4.6601
   317.000   -3.5437   -5.8828   -4.6053   -4.4442
   318.000   -3.3781   -5.5952   -4.3938   -4.2338
   319.000   -3.2166   -5.3173   -4.1877   -4.0289
   320.000   -3.0591   -5.0488   -3.9868   -3.8294
   321.000   -2.9057   -4.7895   -3.7913   -3.6353
   322.000   -2.7563   -4.5389   -3.6010   -3.4466
   323.000   -2.6108   -4.2970   -3.4160   -3.2633
   324.000   -2.4693   -4.0635   -3.2362   -3.0852
   325.000   -2.3318   -3.8382   -3.0617   -2.9124
   326.000   -2.1982   -3.6209   -2.8923   -2.7448
   327.000   -2.0686   -3.4114   -2.7281   -2.5824
   328.000   -1.9429   -3.2095   -2.5690   -2.4252
   329.000   -1.8211   -3.0150   -2.4151   -2.2731
   330.000   -1.7033   -2.8279   -2.2663   -2.1262
   331.000   -1.5894   -2.6480   -2.1226   -1.9843
   332.000   -1.4794   -2.4752   -1.9840   -1.8475
   333.000   -1.3734   -2.3092   -1.8504   -1.7157
   334.000   -1.2712   -2.1501   -1.7218   -1.5889
   335.000   -1.1730   -1.9977   -1.5983   -1.4671
   336.000   -1.0787   -1.8519   -1.4797   -1.3502
   337.000   -0.9883   -1.7126   -1.3661   -1.2384
   338.000   -0.9019   -1.5798   -1.2575   -1.1314
   339.000   -0.8194   -1.4533   -1.1539   -1.0294
   340.000   -0.7408   -1.3331   -1.0552   -0.9322
   341.000   -0.6662   -1.2191   -0.9614   -0.8399
   342.000   -0.5955   -1.1112   -0.8725   -0.7525
   343.000   -0.5288   -1.0094   -0.7885   -0.6700
   344.000   -0.4660   -0.9137   -0.7093   -0.5923
   345.000   -0.4071   -0.8239   -0.6351   -0.5194
   346.000   -0.3522   -0.7400   -0.5657   -0.4513
   347.000   -0.3013   -0.6620   -0.5012   -0.3880
   348.000   -0.2543   -0.5898   -0.4415   -0.3296
   349.000   -0.2113   -0.5234   -0.3867   -0.2759
   350.000   -0.1723   -0.4628   -0.3366   -0.2270
   351.000   -0.1372   -0.4079   -0.2914   -0.1829
   352.000   -0.1061   -0.3588   -0.2511   -0.1435
   353.000   -0.0790   -0.3153   -0.2155   -0.1089
   354.000   -0.0559   -0.2774   -0.1847   -0.0791
   355.000   -0.0367   -0.2452   -0.1588   -0.0540
   356.000   -0.0215   -0.2187   -0.1376   -0.0337
   357.000   -0.0104   -0.1977   -0.1212   -0.0182
   358.000   -0.0032   -0.1824   -0.1097   -0.0073
   359.000    0.0000   -0.1726   -0.1029   -0.0013
   360.000   -0.0008   -0.1684   -0.1009   -0.0000




  É” = 0.000 Åãplane
   É∆(deg)       EÉ”       EÉ∆       ER        EL 
     0.000   -0.0172   -0.2862   -0.0103   -0.0000
     1.000   -0.0293   -0.2830   -0.0171   -0.0026
     2.000   -0.0446   -0.2845   -0.0278   -0.0090
     3.000   -0.0631   -0.2905   -0.0424   -0.0193
     4.000   -0.0848   -0.3011   -0.0608   -0.0335
     5.000   -0.1097   -0.3162   -0.0831   -0.0515
     6.000   -0.1378   -0.3360   -0.1093   -0.0734
     7.000   -0.1692   -0.3604   -0.1394   -0.0992
     8.000   -0.2037   -0.3893   -0.1734   -0.1289
     9.000   -0.2415   -0.4229   -0.2112   -0.1625
    10.000   -0.2824   -0.4610   -0.2530   -0.2000
    11.000   -0.3266   -0.5039   -0.2986   -0.2414
    12.000   -0.3740   -0.5513   -0.3481   -0.2867
    13.000   -0.4245   -0.6035   -0.4016   -0.3359
    14.000   -0.4782   -0.6603   -0.4589   -0.3891
    15.000   -0.5351   -0.7219   -0.5202   -0.4462
    16.000   -0.5952   -0.7881   -0.5854   -0.5073
    17.000   -0.6584   -0.8592   -0.6545   -0.5723
    18.000   -0.7248   -0.9350   -0.7275   -0.6413
    19.000   -0.7943   -1.0156   -0.8044   -0.7142
    20.000   -0.8669   -1.1011   -0.8853   -0.7911
    21.000   -0.9426   -1.1915   -0.9701   -0.8721
    22.000   -1.0214   -1.2868   -1.0588   -0.9570
    23.000   -1.1032   -1.3870   -1.1515   -1.0459
    24.000   -1.1882   -1.4923   -1.2481   -1.1388
    25.000   -1.2761   -1.6026   -1.3487   -1.2357
    26.000   -1.3670   -1.7180   -1.4532   -1.3367
    27.000   -1.4610   -1.8385   -1.5616   -1.4416
    28.000   -1.5579   -1.9643   -1.6740   -1.5506
    29.000   -1.6577   -2.0953   -1.7903   -1.6637
    30.000   -1.7604   -2.2317   -1.9106   -1.7808
    31.000   -1.8660   -2.3735   -2.0349   -1.9019
    32.000   -1.9745   -2.5207   -2.1631   -2.0271
    33.000   -2.0858   -2.6736   -2.2953   -2.1564
    34.000   -2.1999   -2.8320   -2.4314   -2.2898
    35.000   -2.3167   -2.9962   -2.5715   -2.4272
    36.000   -2.4363   -3.1663   -2.7156   -2.5687
    37.000   -2.5585   -3.3423   -2.8636   -2.7143
    38.000   -2.6834   -3.5243   -3.0156   -2.8639
    39.000   -2.8109   -3.7126   -3.1716   -3.0177
    40.000   -2.9410   -3.9071   -3.3315   -3.1755
    41.000   -3.0736   -4.1080   -3.4953   -3.3374
    42.000   -3.2087   -4.3156   -3.6631   -3.5034
    43.000   -3.3462   -4.5299   -3.8349   -3.6734
    44.000   -3.4861   -4.7511   -4.0105   -3.8475
    45.000   -3.6284   -4.9794   -4.1901   -4.0257
    46.000   -3.7729   -5.2150   -4.3736   -4.2079
    47.000   -3.9198   -5.4582   -4.5610   -4.3941
    48.000   -4.0688   -5.7090   -4.7523   -4.5843
    49.000   -4.2199   -5.9679   -4.9474   -4.7784
    50.000   -4.3732   -6.2350   -5.1464   -4.9765
    51.000   -4.5284   -6.5106   -5.3491   -5.1785
    52.000   -4.6857   -6.7952   -5.5556   -5.3843
    53.000   -4.8449   -7.0889   -5.7659   -5.5940
    54.000   -5.0059   -7.3922   -5.9798   -5.8073
    55.000   -5.1687   -7.7055   -6.1974   -6.0243
    56.000   -5.3333   -8.0292   -6.4186   -6.2449
    57.000   -5.4996   -8.3638   -6.6433   -6.4690
    58.000   -5.6674   -8.7099   -6.8715   -6.6964
    59.000   -5.8369   -9.0680   -7.1030   -6.9271
    60.000   -6.0078   -9.4388   -7.3379   -7.1609
    61.000   -6.1801   -9.8230   -7.5759   -7.3977
    62.000   -6.3539  -10.2214   -7.8170   -7.6372
    63.000   -6.5289  -10.6349   -8.0611   -7.8793
    64.000   -6.7051  -11.0645   -8.3080   -8.1238
    65.000   -6.8826  -11.5113   -8.5576   -8.3703
    66.000   -7.0611  -11.9767   -8.8098   -8.6188
    67.000   -7.2407  -12.4619   -9.0642   -8.8687
    68.000   -7.4212  -12.9687   -9.3208   -9.1198
    69.000   -7.6027  -13.4990   -9.5794   -9.3718
    70.000   -7.7851  -14.0549   -9.8396   -9.6242
    71.000   -7.9683  -14.6389  -10.1013   -9.8765
    72.000   -8.1522  -15.2540  -10.3642  -10.1284
    73.000   -8.3368  -15.9038  -10.6280  -10.3793
    74.000   -8.5221  -16.5923  -10.8924  -10.6287
    75.000   -8.7079  -17.3246  -11.1570  -10.8760
    76.000   -8.8943  -18.1068  -11.4215  -11.1206
    77.000   -9.0812  -18.9465  -11.6856  -11.3619
    78.000   -9.2685  -19.8533  -11.9488  -11.5992
    79.000   -9.4563  -20.8391  -12.2108  -11.8320
    80.000   -9.6445  -21.9199  -12.4712  -12.0595
    81.000   -9.8330  -23.1164  -12.7296  -12.2811
    82.000  -10.0218  -24.4569  -12.9857  -12.4961
    83.000  -10.2109  -25.9803  -13.2389  -12.7041
    84.000  -10.4003  -27.7408  -13.4889  -12.9044
    85.000  -10.5900  -29.8103  -13.7353  -13.0965
    86.000  -10.7799  -30.0000  -13.9779  -13.2800
    87.000  -10.9700  -30.0000  -14.2163  -13.4546
    88.000  -11.1604  -30.0000  -14.4503  -13.6200
    89.000  -11.3510  -30.0000  -14.6795  -13.7760
    90.000  -11.5419  -30.0000  -14.9040  -13.9227
    91.000  -11.7330  -30.0000  -15.1234  -14.0599
    92.000  -11.9244  -30.0000  -15.3378  -14.1879
    93.000  -12.1160  -28.4940  -15.5473  -14.3070
    94.000  -12.3079  -27.1470  -15.7518  -14.4174
    95.000  -12.5001  -26.0148  -15.9516  -14.5196
    96.000  -12.6927  -25.0499  -16.1468  -14.6141
    97.000  -12.8856  -24.2180  -16.3378  -14.7016
    98.000  -13.0789  -23.4942  -16.5250  -14.7826
    99.000  -13.2725  -22.8601  -16.7086  -14.8577
   100.000  -13.4666  -22.3016  -16.8893  -14.9278
   101.000  -13.6611  -21.8077  -17.0674  -14.9935
   102.000  -13.8560  -21.3701  -17.2437  -15.0555
   103.000  -14.0514  -20.9819  -17.4186  -15.1145
   104.000  -14.2472  -20.6375  -17.5928  -15.1713
   105.000  -14.4434  -20.3325  -17.7669  -15.2265
   106.000  -14.6400  -20.0631  -17.9417  -15.2807
   107.000  -14.8370  -19.8263  -18.1177  -15.3347
   108.000  -15.0343  -19.6194  -18.2957  -15.3889
   109.000  -15.2318  -19.4402  -18.4762  -15.4438
   110.000  -15.4294  -19.2870  -18.6599  -15.5001
   111.000  -15.6269  -19.1580  -18.8475  -15.5582
   112.000  -15.8243  -19.0519  -19.0396  -15.6184
   113.000  -16.0214  -18.9675  -19.2367  -15.6812
   114.000  -16.2178  -18.9039  -19.4393  -15.7469
   115.000  -16.4133  -18.8601  -19.6478  -15.8157
   116.000  -16.6076  -18.8354  -19.8628  -15.8880
   117.000  -16.8003  -18.8291  -20.0846  -15.9639
   118.000  -16.9909  -18.8408  -20.3133  -16.0437
   119.000  -17.1791  -18.8697  -20.5491  -16.1273
   120.000  -17.3641  -18.9157  -20.7920  -16.2150
   121.000  -17.5455  -18.9781  -21.0417  -16.3067
   122.000  -17.7225  -19.0567  -21.2980  -16.4024
   123.000  -17.8943  -19.1512  -21.5601  -16.5022
   124.000  -18.0603  -19.2611  -21.8271  -16.6058
   125.000  -18.2196  -19.3863  -22.0977  -16.7131
   126.000  -18.3712  -19.5263  -22.3701  -16.8239
   127.000  -18.5143  -19.6807  -22.6420  -16.9380
   128.000  -18.6480  -19.8491  -22.9107  -17.0550
   129.000  -18.7714  -20.0310  -23.1726  -17.1746
   130.000  -18.8835  -20.2257  -23.4236  -17.2962
   131.000  -18.9837  -20.4324  -23.6589  -17.4194
   132.000  -19.0712  -20.6501  -23.8733  -17.5436
   133.000  -19.1454  -20.8776  -24.0611  -17.6681
   134.000  -19.2058  -21.1133  -24.2165  -17.7922
   135.000  -19.2521  -21.3552  -24.3341  -17.9151
   136.000  -19.2841  -21.6011  -24.4092  -18.0360
   137.000  -19.3019  -21.8481  -24.4382  -18.1539
   138.000  -19.3056  -22.0929  -24.4193  -18.2679
   139.000  -19.2957  -22.3314  -24.3523  -18.3770
   140.000  -19.2727  -22.5593  -24.2391  -18.4802
   141.000  -19.2372  -22.7714  -24.0829  -18.5765
   142.000  -19.1902  -22.9625  -23.8883  -18.6650
   143.000  -19.1326  -23.1269  -23.6610  -18.7447
   144.000  -19.0654  -23.2595  -23.4068  -18.8148
   145.000  -18.9897  -23.3554  -23.1316  -18.8746
   146.000  -18.9066  -23.4108  -22.8409  -18.9236
   147.000  -18.8173  -23.4234  -22.5398  -18.9612
   148.000  -18.7228  -23.3922  -22.2328  -18.9872
   149.000  -18.6243  -23.3180  -21.9236  -19.0015
   150.000  -18.5229  -23.2033  -21.6154  -19.0043
   151.000  -18.4195  -23.0517  -21.3108  -18.9958
   152.000  -18.3152  -22.8680  -21.0119  -18.9765
   153.000  -18.2107  -22.6574  -20.7203  -18.9470
   154.000  -18.1071  -22.4253  -20.4373  -18.9082
   155.000  -18.0049  -22.1770  -20.1639  -18.8608
   156.000  -17.9050  -21.9176  -19.9009  -18.8060
   157.000  -17.8079  -21.6513  -19.6487  -18.7447
   158.000  -17.7144  -21.3820  -19.4077  -18.6781
   159.000  -17.6249  -21.1131  -19.1783  -18.6072
   160.000  -17.5399  -20.8472  -18.9605  -18.5332
   161.000  -17.4598  -20.5867  -18.7544  -18.4572
   162.000  -17.3851  -20.3332  -18.5601  -18.3802
   163.000  -17.3162  -20.0882  -18.3776  -18.3032
   164.000  -17.2533  -19.8528  -18.2068  -18.2272
   165.000  -17.1969  -19.6279  -18.0475  -18.1532
   166.000  -17.1470  -19.4141  -17.8998  -18.0818
   167.000  -17.1041  -19.2119  -17.7635  -18.0140
   168.000  -17.0683  -19.0216  -17.6385  -17.9504
   169.000  -17.0399  -18.8434  -17.5246  -17.8917
   170.000  -17.0191  -18.6774  -17.4218  -17.8385
   171.000  -17.0060  -18.5238  -17.3299  -17.7913
   172.000  -17.0009  -18.3825  -17.2489  -17.7507
   173.000  -17.0038  -18.2536  -17.1785  -17.7171
   174.000  -17.0149  -18.1370  -17.1186  -17.6910
   175.000  -17.0345  -18.0326  -17.0692  -17.6728
   176.000  -17.0625  -17.9404  -17.0300  -17.6628
   177.000  -17.0992  -17.8602  -17.0010  -17.6614
   178.000  -17.1447  -17.7921  -16.9821  -17.6688
   179.000  -17.1990  -17.7357  -16.9731  -17.6854
   180.000  -17.2623  -17.6912  -16.9738  -17.7115
   181.000  -17.3346  -17.6583  -16.9841  -17.7474
   182.000  -17.4161  -17.6369  -17.0039  -17.7932
   183.000  -17.5067  -17.6270  -17.0330  -17.8492
   184.000  -17.6065  -17.6284  -17.0712  -17.9158
   185.000  -17.7155  -17.6410  -17.1182  -17.9930
   186.000  -17.8336  -17.6647  -17.1739  -18.0812
   187.000  -17.9609  -17.6994  -17.2380  -18.1805
   188.000  -18.0971  -17.7449  -17.3101  -18.2911
   189.000  -18.2421  -17.8010  -17.3900  -18.4132
   190.000  -18.3957  -17.8677  -17.4771  -18.5471
   191.000  -18.5575  -17.9447  -17.5712  -18.6927
   192.000  -18.7270  -18.0318  -17.6715  -18.8504
   193.000  -18.9036  -18.1288  -17.7776  -19.0200
   194.000  -19.0867  -18.2354  -17.8887  -19.2017
   195.000  -19.2753  -18.3512  -18.0041  -19.3955
   196.000  -19.4682  -18.4759  -18.1228  -19.6011
   197.000  -19.6640  -18.6091  -18.2439  -19.8184
   198.000  -19.8610  -18.7502  -18.3662  -20.0469
   199.000  -20.0573  -18.8986  -18.4885  -20.2861
   200.000  -20.2503  -19.0537  -18.6094  -20.5352
   201.000  -20.4374  -19.2145  -18.7275  -20.7931
   202.000  -20.6155  -19.3801  -18.8410  -21.0582
   203.000  -20.7811  -19.5495  -18.9483  -21.3286
   204.000  -20.9305  -19.7214  -19.0475  -21.6019
   205.000  -21.0597  -19.8945  -19.1370  -21.8749
   206.000  -21.1650  -20.0670  -19.2148  -22.1439
   207.000  -21.2426  -20.2374  -19.2793  -22.4040
   208.000  -21.2891  -20.4036  -19.3288  -22.6501
   209.000  -21.3019  -20.5638  -19.3619  -22.8759
   210.000  -21.2792  -20.7158  -19.3774  -23.0747
   211.000  -21.2202  -20.8573  -19.3744  -23.2396
   212.000  -21.1249  -20.9863  -19.3524  -23.3640
   213.000  -20.9947  -21.1007  -19.3112  -23.4420
   214.000  -20.8317  -21.1986  -19.2510  -23.4689
   215.000  -20.6389  -21.2784  -19.1724  -23.4423
   216.000  -20.4196  -21.3387  -19.0761  -23.3616
   217.000  -20.1775  -21.3787  -18.9634  -23.2288
   218.000  -19.9165  -21.3980  -18.8357  -23.0477
   219.000  -19.6401  -21.3967  -18.6945  -22.8237
   220.000  -19.3520  -21.3754  -18.5413  -22.5633
   221.000  -19.0552  -21.3351  -18.3780  -22.2731
   222.000  -18.7525  -21.2773  -18.2062  -21.9599
   223.000  -18.4464  -21.2038  -18.0275  -21.6299
   224.000  -18.1389  -21.1166  -17.8434  -21.2886
   225.000  -17.8317  -21.0179  -17.6554  -20.9407
   226.000  -17.5264  -20.9100  -17.4648  -20.5902
   227.000  -17.2239  -20.7950  -17.2728  -20.2403
   228.000  -16.9253  -20.6753  -17.0804  -19.8935
   229.000  -16.6311  -20.5528  -16.8885  -19.5518
   230.000  -16.3421  -20.4297  -16.6980  -19.2167
   231.000  -16.0585  -20.3077  -16.5096  -18.8893
   232.000  -15.7806  -20.1885  -16.3237  -18.5703
   233.000  -15.5085  -20.0736  -16.1409  -18.2602
   234.000  -15.2425  -19.9644  -15.9615  -17.9594
   235.000  -14.9824  -19.8622  -15.7859  -17.6680
   236.000  -14.7284  -19.7680  -15.6143  -17.3859
   237.000  -14.4802  -19.6829  -15.4468  -17.1132
   238.000  -14.2378  -19.6078  -15.2836  -16.8497
   239.000  -14.0011  -19.5436  -15.1246  -16.5951
   240.000  -13.7699  -19.4911  -14.9700  -16.3492
   241.000  -13.5440  -19.4511  -14.8197  -16.1117
   242.000  -13.3233  -19.4244  -14.6736  -15.8824
   243.000  -13.1076  -19.4116  -14.5316  -15.6608
   244.000  -12.8967  -19.4135  -14.3936  -15.4466
   245.000  -12.6904  -19.4310  -14.2594  -15.2396
   246.000  -12.4885  -19.4648  -14.1289  -15.0392
   247.000  -12.2907  -19.5159  -14.0019  -14.8452
   248.000  -12.0970  -19.5851  -13.8781  -14.6573
   249.000  -11.9070  -19.6735  -13.7573  -14.4749
   250.000  -11.7207  -19.7824  -13.6392  -14.2978
   251.000  -11.5378  -19.9130  -13.5236  -14.1256
   252.000  -11.3581  -20.0668  -13.4102  -13.9579
   253.000  -11.1814  -20.2456  -13.2987  -13.7943
   254.000  -11.0077  -20.4513  -13.1888  -13.6346
   255.000  -10.8366  -20.6863  -13.0801  -13.4783
   256.000  -10.6681  -20.9533  -12.9724  -13.3250
   257.000  -10.5019  -21.2556  -12.8654  -13.1745
   258.000  -10.3380  -21.5970  -12.7586  -13.0264
   259.000  -10.1761  -21.9823  -12.6518  -12.8802
   260.000  -10.0162  -22.4173  -12.5446  -12.7357
   261.000   -9.8580  -22.9091  -12.4366  -12.5926
   262.000   -9.7015  -23.4671  -12.3277  -12.4504
   263.000   -9.5466  -24.1029  -12.2173  -12.3090
   264.000   -9.3930  -24.8322  -12.1053  -12.1679
   265.000   -9.2408  -25.6764  -11.9913  -12.0270
   266.000   -9.0898  -26.6654  -11.8750  -11.8858
   267.000   -8.9398  -27.8432  -11.7562  -11.7441
   268.000   -8.7909  -29.2788  -11.6346  -11.6018
   269.000   -8.6429  -30.0000  -11.5099  -11.4584
   270.000   -8.4958  -30.0000  -11.3821  -11.3139
   271.000   -8.3494  -30.0000  -11.2509  -11.1680
   272.000   -8.2037  -30.0000  -11.1162  -11.0206
   273.000   -8.0587  -30.0000  -10.9779  -10.8715
   274.000   -7.9142  -30.0000  -10.8358  -10.7205
   275.000   -7.7703  -30.0000  -10.6900  -10.5675
   276.000   -7.6269  -30.0000  -10.5405  -10.4125
   277.000   -7.4840  -29.2201  -10.3872  -10.2555
   278.000   -7.3415  -27.1992  -10.2302  -10.0962
   279.000   -7.1994  -25.5140  -10.0696   -9.9348
   280.000   -7.0577  -24.0642   -9.9055   -9.7713
   281.000   -6.9164  -22.7890   -9.7380   -9.6056
   282.000   -6.7754  -21.6486   -9.5673   -9.4379
   283.000   -6.6348  -20.6158   -9.3935   -9.2682
   284.000   -6.4946  -19.6707   -9.2169   -9.0965
   285.000   -6.3547  -18.7989   -9.0377   -8.9230
   286.000   -6.2152  -17.9890   -8.8561   -8.7478
   287.000   -6.0761  -17.2326   -8.6723   -8.5711
   288.000   -5.9375  -16.5226   -8.4865   -8.3929
   289.000   -5.7992  -15.8534   -8.2991   -8.2134
   290.000   -5.6615  -15.2205   -8.1103   -8.0329
   291.000   -5.5242  -14.6201   -7.9203   -7.8514
   292.000   -5.3875  -14.0489   -7.7294   -7.6691
   293.000   -5.2513  -13.5042   -7.5378   -7.4863
   294.000   -5.1157  -12.9837   -7.3458   -7.3030
   295.000   -4.9808  -12.4855   -7.1537   -7.1195
   296.000   -4.8466  -12.0078   -6.9615   -6.9360
   297.000   -4.7131  -11.5490   -6.7697   -6.7525
   298.000   -4.5803  -11.1079   -6.5783   -6.5694
   299.000   -4.4485  -10.6833   -6.3877   -6.3867
   300.000   -4.3174  -10.2741   -6.1980   -6.2047
   301.000   -4.1874   -9.8793   -6.0093   -6.0235
   302.000   -4.0583   -9.4983   -5.8219   -5.8432
   303.000   -3.9303   -9.1302   -5.6360   -5.6641
   304.000   -3.8033   -8.7743   -5.4517   -5.4862
   305.000   -3.6776   -8.4301   -5.2691   -5.3097
   306.000   -3.5530   -8.0970   -5.0884   -5.1348
   307.000   -3.4297   -7.7745   -4.9098   -4.9616
   308.000   -3.3078   -7.4621   -4.7334   -4.7901
   309.000   -3.1872   -7.1595   -4.5592   -4.6206
   310.000   -3.0681   -6.8662   -4.3874   -4.4531
   311.000   -2.9505   -6.5819   -4.2181   -4.2877
   312.000   -2.8344   -6.3062   -4.0514   -4.1246
   313.000   -2.7200   -6.0389   -3.8874   -3.9638
   314.000   -2.6073   -5.7797   -3.7261   -3.8054
   315.000   -2.4962   -5.5284   -3.5677   -3.6495
   316.000   -2.3870   -5.2846   -3.4122   -3.4963
   317.000   -2.2796   -5.0483   -3.2597   -3.3457
   318.000   -2.1741   -4.8191   -3.1103   -3.1978
   319.000   -2.0706   -4.5969   -2.9639   -3.0528
   320.000   -1.9690   -4.3816   -2.8208   -2.9106
   321.000   -1.8695   -4.1730   -2.6808   -2.7714
   322.000   -1.7721   -3.9708   -2.5441   -2.6351
   323.000   -1.6769   -3.7750   -2.4106   -2.5019
   324.000   -1.5839   -3.5855   -2.2805   -2.3718
   325.000   -1.4931   -3.4021   -2.1538   -2.2448
   326.000   -1.4046   -3.2247   -2.0305   -2.1210
   327.000   -1.3184   -3.0532   -1.9107   -2.0004
   328.000   -1.2347   -2.8875   -1.7943   -1.8831
   329.000   -1.1534   -2.7275   -1.6814   -1.7691
   330.000   -1.0745   -2.5731   -1.5721   -1.6584
   331.000   -0.9982   -2.4242   -1.4663   -1.5511
   332.000   -0.9244   -2.2809   -1.3641   -1.4472
   333.000   -0.8532   -2.1429   -1.2654   -1.3467
   334.000   -0.7846   -2.0102   -1.1704   -1.2496
   335.000   -0.7187   -1.8828   -1.0791   -1.1561
   336.000   -0.6555   -1.7605   -0.9913   -1.0660
   337.000   -0.5950   -1.6435   -0.9073   -0.9795
   338.000   -0.5372   -1.5315   -0.8269   -0.8965
   339.000   -0.4823   -1.4245   -0.7502   -0.8170
   340.000   -0.4302   -1.3226   -0.6772   -0.7412
   341.000   -0.3810   -1.2256   -0.6079   -0.6690
   342.000   -0.3346   -1.1335   -0.5424   -0.6004
   343.000   -0.2911   -1.0463   -0.4806   -0.5354
   344.000   -0.2506   -0.9640   -0.4225   -0.4741
   345.000   -0.2130   -0.8865   -0.3683   -0.4164
   346.000   -0.1784   -0.8137   -0.3177   -0.3624
   347.000   -0.1468   -0.7457   -0.2710   -0.3121
   348.000   -0.1183   -0.6825   -0.2281   -0.2656
   349.000   -0.0927   -0.6239   -0.1889   -0.2227
   350.000   -0.0703   -0.5701   -0.1535   -0.1836
   351.000   -0.0509   -0.5209   -0.1220   -0.1482
   352.000   -0.0346   -0.4764   -0.0942   -0.1166
   353.000   -0.0214   -0.4365   -0.0703   -0.0888
   354.000   -0.0113   -0.4012   -0.0502   -0.0647
   355.000   -0.0044   -0.3706   -0.0340   -0.0444
   356.000   -0.0006   -0.3445   -0.0216   -0.0279
   357.000    0.0000   -0.3230   -0.0130   -0.0152
   358.000   -0.0025   -0.3062   -0.0082   -0.0063
   359.000   -0.0083   -0.2939   -0.0073   -0.0012
   360.000   -0.0172   -0.2862   -0.0103    0.0000




  É” = 0.000 Åãplane
   É∆(deg)       EÉ”       EÉ∆       ER        EL 
     0.000   -0.0296   -0.2075   -0.0096   -0.0526
     1.000   -0.0441   -0.2062   -0.0198   -0.0560
     2.000   -0.0615   -0.2092   -0.0336   -0.0628
     3.000   -0.0818   -0.2164   -0.0510   -0.0730
     4.000   -0.1049   -0.2277   -0.0720   -0.0866
     5.000   -0.1309   -0.2433   -0.0967   -0.1037
     6.000   -0.1598   -0.2631   -0.1249   -0.1243
     7.000   -0.1916   -0.2871   -0.1568   -0.1483
     8.000   -0.2263   -0.3154   -0.1923   -0.1758
     9.000   -0.2639   -0.3478   -0.2314   -0.2068
    10.000   -0.3043   -0.3846   -0.2742   -0.2412
    11.000   -0.3476   -0.4256   -0.3206   -0.2792
    12.000   -0.3938   -0.4708   -0.3707   -0.3206
    13.000   -0.4428   -0.5204   -0.4244   -0.3656
    14.000   -0.4947   -0.5743   -0.4817   -0.4141
    15.000   -0.5494   -0.6326   -0.5427   -0.4660
    16.000   -0.6069   -0.6952   -0.6074   -0.5216
    17.000   -0.6672   -0.7622   -0.6757   -0.5806
    18.000   -0.7303   -0.8336   -0.7476   -0.6432
    19.000   -0.7962   -0.9094   -0.8232   -0.7093
    20.000   -0.8649   -0.9897   -0.9025   -0.7790
    21.000   -0.9362   -1.0745   -0.9854   -0.8522
    22.000   -1.0103   -1.1639   -1.0720   -0.9289
    23.000   -1.0871   -1.2579   -1.1622   -1.0092
    24.000   -1.1665   -1.3564   -1.2562   -1.0931
    25.000   -1.2486   -1.4597   -1.3537   -1.1806
    26.000   -1.3333   -1.5676   -1.4550   -1.2716
    27.000   -1.4205   -1.6804   -1.5599   -1.3661
    28.000   -1.5103   -1.7980   -1.6685   -1.4643
    29.000   -1.6026   -1.9204   -1.7808   -1.5660
    30.000   -1.6974   -2.0478   -1.8967   -1.6713
    31.000   -1.7946   -2.1803   -2.0163   -1.7802
    32.000   -1.8943   -2.3178   -2.1395   -1.8926
    33.000   -1.9963   -2.4605   -2.2665   -2.0086
    34.000   -2.1005   -2.6085   -2.3970   -2.1282
    35.000   -2.2071   -2.7618   -2.5313   -2.2513
    36.000   -2.3159   -2.9206   -2.6692   -2.3780
    37.000   -2.4269   -3.0849   -2.8107   -2.5083
    38.000   -2.5399   -3.2549   -2.9559   -2.6420
    39.000   -2.6551   -3.4307   -3.1048   -2.7794
    40.000   -2.7722   -3.6124   -3.2572   -2.9203
    41.000   -2.8913   -3.8002   -3.4133   -3.0646
    42.000   -3.0123   -3.9942   -3.5729   -3.2125
    43.000   -3.1351   -4.1945   -3.7362   -3.3639
    44.000   -3.2597   -4.4014   -3.9030   -3.5187
    45.000   -3.3860   -4.6151   -4.0734   -3.6769
    46.000   -3.5139   -4.8357   -4.2473   -3.8386
    47.000   -3.6433   -5.0634   -4.4246   -4.0036
    48.000   -3.7742   -5.2986   -4.6055   -4.1720
    49.000   -3.9065   -5.5414   -4.7897   -4.3436
    50.000   -4.0402   -5.7922   -4.9773   -4.5185
    51.000   -4.1750   -6.0513   -5.1683   -4.6966
    52.000   -4.3110   -6.3189   -5.3625   -4.8778
    53.000   -4.4481   -6.5955   -5.5599   -5.0620
    54.000   -4.5862   -6.8814   -5.7605   -5.2493
    55.000   -4.7251   -7.1772   -5.9640   -5.4393
    56.000   -4.8648   -7.4832   -6.1706   -5.6322
    57.000   -5.0052   -7.8000   -6.3799   -5.8276
    58.000   -5.1462   -8.1282   -6.5920   -6.0256
    59.000   -5.2877   -8.4685   -6.8066   -6.2260
    60.000   -5.4295   -8.8215   -7.0236   -6.4286
    61.000   -5.5717   -9.1881   -7.2429   -6.6331
    62.000   -5.7140   -9.5691   -7.4641   -6.8395
    63.000   -5.8564   -9.9656   -7.6872   -7.0475
    64.000   -5.9988  -10.3787   -7.9119   -7.2567
    65.000   -6.1410  -10.8097   -8.1378   -7.4671
    66.000   -6.2830  -11.2600   -8.3648   -7.6781
    67.000   -6.4246  -11.7313   -8.5923   -7.8896
    68.000   -6.5658  -12.2255   -8.8202   -8.1012
    69.000   -6.7063  -12.7449   -9.0479   -8.3123
    70.000   -6.8462  -13.2921   -9.2750   -8.5227
    71.000   -6.9852  -13.8700   -9.5010   -8.7319
    72.000   -7.1233  -14.4823   -9.7255   -8.9393
    73.000   -7.2604  -15.1333   -9.9479   -9.1444
    74.000   -7.3964  -15.8282  -10.1675   -9.3468
    75.000   -7.5311  -16.5733  -10.3837   -9.5457
    76.000   -7.6644  -17.3765  -10.5959   -9.7407
    77.000   -7.7964  -18.2476  -10.8034   -9.9310
    78.000   -7.9267  -19.1992  -11.0054  -10.1161
    79.000   -8.0555  -20.2476  -11.2013  -10.2952
    80.000   -8.1825  -21.4139  -11.3902  -10.4679
    81.000   -8.3077  -22.7268  -11.5716  -10.6334
    82.000   -8.4310  -24.2239  -11.7446  -10.7911
    83.000   -8.5522  -25.9540  -11.9086  -10.9406
    84.000   -8.6715  -27.9690  -12.0630  -11.0812
    85.000   -8.7886  -30.0000  -12.2073  -11.2126
    86.000   -8.9035  -30.0000  -12.3408  -11.3344
    87.000   -9.0161  -30.0000  -12.4633  -11.4462
    88.000   -9.1265  -30.0000  -12.5743  -11.5479
    89.000   -9.2345  -30.0000  -12.6739  -11.6393
    90.000   -9.3400  -28.3737  -12.7617  -11.7203
    91.000   -9.4432  -26.5420  -12.8379  -11.7912
    92.000   -9.5439  -24.9929  -12.9026  -11.8519
    93.000   -9.6421  -23.6744  -12.9560  -11.9028
    94.000   -9.7379  -22.5380  -12.9985  -11.9442
    95.000   -9.8311  -21.5466  -13.0306  -11.9766
    96.000   -9.9218  -20.6721  -13.0527  -12.0003
    97.000  -10.0100  -19.8934  -13.0655  -12.0160
    98.000  -10.0957  -19.1945  -13.0695  -12.0241
    99.000  -10.1790  -18.5631  -13.0655  -12.0254
   100.000  -10.2598  -17.9895  -13.0542  -12.0204
   101.000  -10.3382  -17.4657  -13.0362  -12.0098
   102.000  -10.4142  -16.9856  -13.0123  -11.9943
   103.000  -10.4878  -16.5440  -12.9833  -11.9743
   104.000  -10.5592  -16.1367  -12.9496  -11.9507
   105.000  -10.6283  -15.7600  -12.9122  -11.9239
   106.000  -10.6952  -15.4110  -12.8714  -11.8946
   107.000  -10.7599  -15.0871  -12.8281  -11.8633
   108.000  -10.8226  -14.7860  -12.7826  -11.8304
   109.000  -10.8832  -14.5059  -12.7355  -11.7966
   110.000  -10.9419  -14.2451  -12.6874  -11.7622
   111.000  -10.9987  -14.0021  -12.6385  -11.7276
   112.000  -11.0537  -13.7757  -12.5894  -11.6932
   113.000  -11.1069  -13.5647  -12.5404  -11.6595
   114.000  -11.1584  -13.3681  -12.4917  -11.6266
   115.000  -11.2084  -13.1850  -12.4438  -11.5949
   116.000  -11.2568  -13.0146  -12.3967  -11.5647
   117.000  -11.3037  -12.8562  -12.3509  -11.5361
   118.000  -11.3492  -12.7091  -12.3063  -11.5094
   119.000  -11.3935  -12.5727  -12.2633  -11.4848
   120.000  -11.4364  -12.4465  -12.2220  -11.4624
   121.000  -11.4781  -12.3299  -12.1825  -11.4423
   122.000  -11.5188  -12.2226  -12.1448  -11.4248
   123.000  -11.5583  -12.1240  -12.1091  -11.4098
   124.000  -11.5968  -12.0338  -12.0754  -11.3975
   125.000  -11.6343  -11.9516  -12.0438  -11.3880
   126.000  -11.6709  -11.8772  -12.0143  -11.3813
   127.000  -11.7066  -11.8101  -11.9869  -11.3774
   128.000  -11.7415  -11.7500  -11.9617  -11.3764
   129.000  -11.7756  -11.6968  -11.9385  -11.3784
   130.000  -11.8088  -11.6501  -11.9175  -11.3832
   131.000  -11.8414  -11.6097  -11.8986  -11.3910
   132.000  -11.8732  -11.5753  -11.8817  -11.4018
   133.000  -11.9042  -11.5467  -11.8668  -11.4154
   134.000  -11.9346  -11.5238  -11.8539  -11.4319
   135.000  -11.9643  -11.5062  -11.8429  -11.4512
   136.000  -11.9932  -11.4938  -11.8337  -11.4733
   137.000  -12.0215  -11.4864  -11.8263  -11.4982
   138.000  -12.0490  -11.4838  -11.8205  -11.5258
   139.000  -12.0758  -11.4858  -11.8163  -11.5560
   140.000  -12.1019  -11.4922  -11.8137  -11.5888
   141.000  -12.1271  -11.5028  -11.8125  -11.6240
   142.000  -12.1516  -11.5175  -11.8125  -11.6616
   143.000  -12.1751  -11.5361  -11.8139  -11.7015
   144.000  -12.1978  -11.5584  -11.8163  -11.7436
   145.000  -12.2196  -11.5842  -11.8197  -11.7878
   146.000  -12.2404  -11.6134  -11.8241  -11.8340
   147.000  -12.2601  -11.6457  -11.8292  -11.8820
   148.000  -12.2787  -11.6811  -11.8350  -11.9317
   149.000  -12.2962  -11.7192  -11.8413  -11.9830
   150.000  -12.3125  -11.7600  -11.8481  -12.0357
   151.000  -12.3275  -11.8032  -11.8552  -12.0897
   152.000  -12.3411  -11.8487  -11.8625  -12.1449
   153.000  -12.3533  -11.8963  -11.8699  -12.2010
   154.000  -12.3641  -11.9458  -11.8772  -12.2579
   155.000  -12.3733  -11.9971  -11.8844  -12.3154
   156.000  -12.3808  -12.0499  -11.8913  -12.3734
   157.000  -12.3867  -12.1040  -11.8978  -12.4316
   158.000  -12.3908  -12.1593  -11.9038  -12.4899
   159.000  -12.3931  -12.2156  -11.9092  -12.5480
   160.000  -12.3935  -12.2726  -11.9139  -12.6058
   161.000  -12.3919  -12.3303  -11.9177  -12.6631
   162.000  -12.3883  -12.3884  -11.9207  -12.7196
   163.000  -12.3827  -12.4466  -11.9226  -12.7751
   164.000  -12.3749  -12.5050  -11.9234  -12.8295
   165.000  -12.3649  -12.5632  -11.9231  -12.8825
   166.000  -12.3527  -12.6210  -11.9215  -12.9339
   167.000  -12.3383  -12.6783  -11.9185  -12.9835
   168.000  -12.3216  -12.7350  -11.9142  -13.0310
   169.000  -12.3025  -12.7908  -11.9084  -13.0764
   170.000  -12.2811  -12.8456  -11.9011  -13.1193
   171.000  -12.2574  -12.8992  -11.8923  -13.1597
   172.000  -12.2313  -12.9515  -11.8819  -13.1973
   173.000  -12.2029  -13.0023  -11.8698  -13.2319
   174.000  -12.1721  -13.0515  -11.8562  -13.2633
   175.000  -12.1389  -13.0990  -11.8409  -13.2915
   176.000  -12.1035  -13.1446  -11.8240  -13.3163
   177.000  -12.0657  -13.1882  -11.8054  -13.3375
   178.000  -12.0257  -13.2298  -11.7852  -13.3551
   179.000  -11.9835  -13.2692  -11.7634  -13.3688
   180.000  -11.9391  -13.3063  -11.7400  -13.3788
   181.000  -11.8926  -13.3412  -11.7151  -13.3848
   182.000  -11.8440  -13.3737  -11.6887  -13.3868
   183.000  -11.7934  -13.4038  -11.6608  -13.3848
   184.000  -11.7409  -13.4314  -11.6315  -13.3789
   185.000  -11.6865  -13.4567  -11.6008  -13.3689
   186.000  -11.6304  -13.4794  -11.5688  -13.3548
   187.000  -11.5726  -13.4998  -11.5357  -13.3369
   188.000  -11.5131  -13.5177  -11.5014  -13.3150
   189.000  -11.4521  -13.5332  -11.4660  -13.2893
   190.000  -11.3897  -13.5464  -11.4296  -13.2598
   191.000  -11.3260  -13.5573  -11.3923  -13.2266
   192.000  -11.2610  -13.5660  -11.3542  -13.1899
   193.000  -11.1949  -13.5726  -11.3154  -13.1498
   194.000  -11.1277  -13.5772  -11.2760  -13.1064
   195.000  -11.0596  -13.5798  -11.2360  -13.0598
   196.000  -10.9906  -13.5807  -11.1955  -13.0102
   197.000  -10.9208  -13.5798  -11.1547  -12.9578
   198.000  -10.8504  -13.5774  -11.1137  -12.9027
   199.000  -10.7794  -13.5736  -11.0725  -12.8451
   200.000  -10.7079  -13.5686  -11.0313  -12.7852
   201.000  -10.6360  -13.5624  -10.9901  -12.7231
   202.000  -10.5638  -13.5554  -10.9490  -12.6590
   203.000  -10.4914  -13.5475  -10.9082  -12.5932
   204.000  -10.4189  -13.5391  -10.8677  -12.5257
   205.000  -10.3463  -13.5304  -10.8276  -12.4569
   206.000  -10.2737  -13.5214  -10.7880  -12.3867
   207.000  -10.2012  -13.5124  -10.7489  -12.3155
   208.000  -10.1288  -13.5035  -10.7106  -12.2434
   209.000  -10.0567  -13.4951  -10.6730  -12.1706
   210.000   -9.9848  -13.4873  -10.6363  -12.0972
   211.000   -9.9133  -13.4803  -10.6004  -12.0233
   212.000   -9.8421  -13.4743  -10.5656  -11.9492
   213.000   -9.7714  -13.4696  -10.5318  -11.8749
   214.000   -9.7012  -13.4662  -10.4991  -11.8007
   215.000   -9.6315  -13.4646  -10.4676  -11.7267
   216.000   -9.5623  -13.4649  -10.4373  -11.6528
   217.000   -9.4938  -13.4672  -10.4083  -11.5794
   218.000   -9.4258  -13.4719  -10.3807  -11.5065
   219.000   -9.3585  -13.4792  -10.3544  -11.4342
   220.000   -9.2918  -13.4893  -10.3295  -11.3626
   221.000   -9.2257  -13.5024  -10.3061  -11.2919
   222.000   -9.1604  -13.5188  -10.2842  -11.2219
   223.000   -9.0957  -13.5388  -10.2638  -11.1530
   224.000   -9.0317  -13.5625  -10.2449  -11.0850
   225.000   -8.9683  -13.5902  -10.2275  -11.0181
   226.000   -8.9057  -13.6222  -10.2117  -10.9524
   227.000   -8.8436  -13.6588  -10.1974  -10.8878
   228.000   -8.7822  -13.7002  -10.1847  -10.8244
   229.000   -8.7214  -13.7467  -10.1735  -10.7623
   230.000   -8.6612  -13.7986  -10.1638  -10.7014
   231.000   -8.6016  -13.8563  -10.1556  -10.6418
   232.000   -8.5425  -13.9200  -10.1488  -10.5835
   233.000   -8.4839  -13.9900  -10.1434  -10.5264
   234.000   -8.4258  -14.0668  -10.1394  -10.4706
   235.000   -8.3681  -14.1507  -10.1366  -10.4161
   236.000   -8.3108  -14.2422  -10.1351  -10.3628
   237.000   -8.2538  -14.3415  -10.1348  -10.3106
   238.000   -8.1972  -14.4492  -10.1355  -10.2597
   239.000   -8.1407  -14.5658  -10.1371  -10.2098
   240.000   -8.0845  -14.6918  -10.1396  -10.1610
   241.000   -8.0284  -14.8277  -10.1429  -10.1132
   242.000   -7.9724  -14.9742  -10.1467  -10.0664
   243.000   -7.9165  -15.1320  -10.1510  -10.0204
   244.000   -7.8605  -15.3017  -10.1557   -9.9751
   245.000   -7.8044  -15.4842  -10.1604   -9.9305
   246.000   -7.7481  -15.6804  -10.1652   -9.8866
   247.000   -7.6917  -15.8913  -10.1697   -9.8431
   248.000   -7.6350  -16.1179  -10.1738   -9.7999
   249.000   -7.5780  -16.3616  -10.1772   -9.7570
   250.000   -7.5206  -16.6237  -10.1798   -9.7143
   251.000   -7.4628  -16.9058  -10.1813   -9.6715
   252.000   -7.4044  -17.2097  -10.1814   -9.6286
   253.000   -7.3455  -17.5375  -10.1799   -9.5854
   254.000   -7.2860  -17.8915  -10.1765   -9.5417
   255.000   -7.2258  -18.2745  -10.1709   -9.4975
   256.000   -7.1649  -18.6897  -10.1628   -9.4525
   257.000   -7.1032  -19.1408  -10.1521   -9.4067
   258.000   -7.0406  -19.6323  -10.1383   -9.3597
   259.000   -6.9772  -20.1695  -10.1211   -9.3116
   260.000   -6.9128  -20.7586  -10.1003   -9.2621
   261.000   -6.8475  -21.4072  -10.0756   -9.2110
   262.000   -6.7811  -22.1244  -10.0468   -9.1582
   263.000   -6.7137  -22.9210  -10.0134   -9.1035
   264.000   -6.6452  -23.8094   -9.9754   -9.0468
   265.000   -6.5756  -24.8032   -9.9324   -8.9879
   266.000   -6.5049  -25.9143   -9.8842   -8.9267
   267.000   -6.4329  -27.1453   -9.8307   -8.8630
   268.000   -6.3598  -28.4677   -9.7717   -8.7967
   269.000   -6.2855  -29.7732   -9.7070   -8.7277
   270.000   -6.2099  -30.0000   -9.6365   -8.6559
   271.000   -6.1331  -30.0000   -9.5602   -8.5811
   272.000   -6.0551  -30.0000   -9.4779   -8.5033
   273.000   -5.9758  -29.2695   -9.3898   -8.4224
   274.000   -5.8953  -27.7509   -9.2959   -8.3384
   275.000   -5.8136  -26.2270   -9.1961   -8.2512
   276.000   -5.7306  -24.7985   -9.0906   -8.1607
   277.000   -5.6464  -23.4903   -8.9796   -8.0671
   278.000   -5.5611  -22.2988   -8.8631   -7.9702
   279.000   -5.4746  -21.2119   -8.7415   -7.8701
   280.000   -5.3870  -20.2160   -8.6148   -7.7668
   281.000   -5.2982  -19.2988   -8.4834   -7.6605
   282.000   -5.2084  -18.4496   -8.3474   -7.5510
   283.000   -5.1176  -17.6595   -8.2072   -7.4387
   284.000   -5.0258  -16.9210   -8.0631   -7.3234
   285.000   -4.9331  -16.2280   -7.9153   -7.2054
   286.000   -4.8394  -15.5752   -7.7642   -7.0847
   287.000   -4.7449  -14.9583   -7.6101   -6.9615
   288.000   -4.6496  -14.3736   -7.4532   -6.8360
   289.000   -4.5536  -13.8179   -7.2939   -6.7082
   290.000   -4.4570  -13.2886   -7.1325   -6.5784
   291.000   -4.3597  -12.7833   -6.9692   -6.4466
   292.000   -4.2619  -12.2999   -6.8045   -6.3132
   293.000   -4.1636  -11.8369   -6.6385   -6.1781
   294.000   -4.0649  -11.3925   -6.4716   -6.0417
   295.000   -3.9658  -10.9656   -6.3040   -5.9040
   296.000   -3.8665  -10.5547   -6.1360   -5.7654
   297.000   -3.7670  -10.1590   -5.9679   -5.6258
   298.000   -3.6674   -9.7775   -5.7997   -5.4855
   299.000   -3.5677   -9.4092   -5.6319   -5.3448
   300.000   -3.4681   -9.0535   -5.4645   -5.2036
   301.000   -3.3686   -8.7097   -5.2979   -5.0623
   302.000   -3.2692   -8.3771   -5.1321   -4.9210
   303.000   -3.1701   -8.0551   -4.9674   -4.7798
   304.000   -3.0713   -7.7434   -4.8040   -4.6389
   305.000   -2.9730   -7.4414   -4.6419   -4.4985
   306.000   -2.8751   -7.1486   -4.4814   -4.3586
   307.000   -2.7778   -6.8648   -4.3225   -4.2195
   308.000   -2.6811   -6.5895   -4.1655   -4.0812
   309.000   -2.5851   -6.3225   -4.0103   -3.9440
   310.000   -2.4899   -6.0634   -3.8573   -3.8078
   311.000   -2.3956   -5.8119   -3.7063   -3.6730
   312.000   -2.3022   -5.5679   -3.5576   -3.5394
   313.000   -2.2099   -5.3310   -3.4113   -3.4074
   314.000   -2.1186   -5.1011   -3.2673   -3.2769
   315.000   -2.0284   -4.8779   -3.1259   -3.1481
   316.000   -1.9395   -4.6613   -2.9870   -3.0210
   317.000   -1.8518   -4.4511   -2.8508   -2.8958
   318.000   -1.7655   -4.2471   -2.7173   -2.7726
   319.000   -1.6806   -4.0492   -2.5865   -2.6514
   320.000   -1.5972   -3.8573   -2.4586   -2.5323
   321.000   -1.5153   -3.6712   -2.3336   -2.4154
   322.000   -1.4351   -3.4908   -2.2114   -2.3007
   323.000   -1.3565   -3.3160   -2.0923   -2.1884
   324.000   -1.2796   -3.1467   -1.9762   -2.0785
   325.000   -1.2045   -2.9828   -1.8631   -1.9710
   326.000   -1.1312   -2.8242   -1.7531   -1.8660
   327.000   -1.0598   -2.6708   -1.6462   -1.7635
   328.000   -0.9904   -2.5225   -1.5425   -1.6637
   329.000   -0.9229   -2.3793   -1.4420   -1.5665
   330.000   -0.8575   -2.2411   -1.3446   -1.4721
   331.000   -0.7942   -2.1078   -1.2506   -1.3803
   332.000   -0.7330   -1.9794   -1.1598   -1.2914
   333.000   -0.6740   -1.8558   -1.0722   -1.2053
   334.000   -0.6172   -1.7370   -0.9880   -1.1221
   335.000   -0.5627   -1.6228   -0.9072   -1.0418
   336.000   -0.5105   -1.5134   -0.8297   -0.9644
   337.000   -0.4606   -1.4085   -0.7555   -0.8900
   338.000   -0.4132   -1.3083   -0.6847   -0.8185
   339.000   -0.3681   -1.2125   -0.6174   -0.7501
   340.000   -0.3255   -1.1213   -0.5534   -0.6848
   341.000   -0.2853   -1.0346   -0.4929   -0.6226
   342.000   -0.2477   -0.9523   -0.4358   -0.5634
   343.000   -0.2127   -0.8744   -0.3822   -0.5074
   344.000   -0.1802   -0.8009   -0.3321   -0.4546
   345.000   -0.1503   -0.7318   -0.2855   -0.4049
   346.000   -0.1231   -0.6670   -0.2423   -0.3584
   347.000   -0.0985   -0.6065   -0.2026   -0.3151
   348.000   -0.0766   -0.5504   -0.1665   -0.2751
   349.000   -0.0574   -0.4985   -0.1339   -0.2383
   350.000   -0.0409   -0.4509   -0.1048   -0.2048
   351.000   -0.0272   -0.4076   -0.0792   -0.1746
   352.000   -0.0162   -0.3685   -0.0572   -0.1476
   353.000   -0.0080   -0.3336   -0.0387   -0.1240
   354.000   -0.0026   -0.3030   -0.0239   -0.1037
   355.000    0.0000   -0.2765   -0.0125   -0.0868
   356.000   -0.0002   -0.2543   -0.0048   -0.0732
   357.000   -0.0033   -0.2363   -0.0006   -0.0630
   358.000   -0.0092   -0.2225    0.0000   -0.0561
   359.000   -0.0180   -0.2129   -0.0030   -0.0527
   360.000   -0.0296   -0.2075   -0.0096   -0.0526




  É” = 0.000 Åãplane
   É∆(deg)       EÉ”       EÉ∆       ER        EL 
     0.000   -0.0337   -0.1481   -0.0403    0.0000
     1.000   -0.0489   -0.1462   -0.0533   -0.0005
     2.000   -0.0669   -0.1482   -0.0698   -0.0043
     3.000   -0.0877   -0.1543   -0.0898   -0.0113
     4.000   -0.1113   -0.1643   -0.1133   -0.0217
     5.000   -0.1378   -0.1782   -0.1402   -0.0354
     6.000   -0.1670   -0.1962   -0.1707   -0.0524
     7.000   -0.1992   -0.2182   -0.2046   -0.0728
     8.000   -0.2341   -0.2441   -0.2421   -0.0965
     9.000   -0.2719   -0.2741   -0.2830   -0.1235
    10.000   -0.3125   -0.3081   -0.3275   -0.1539
    11.000   -0.3559   -0.3462   -0.3755   -0.1877
    12.000   -0.4021   -0.3883   -0.4270   -0.2248
    13.000   -0.4511   -0.4344   -0.4820   -0.2653
    14.000   -0.5029   -0.4847   -0.5405   -0.3092
    15.000   -0.5575   -0.5390   -0.6026   -0.3564
    16.000   -0.6148   -0.5975   -0.6682   -0.4071
    17.000   -0.6749   -0.6601   -0.7373   -0.4611
    18.000   -0.7377   -0.7269   -0.8100   -0.5186
    19.000   -0.8032   -0.7978   -0.8862   -0.5794
    20.000   -0.8714   -0.8730   -0.9659   -0.6436
    21.000   -0.9423   -0.9525   -1.0492   -0.7113
    22.000   -1.0159   -1.0363   -1.1361   -0.7823
    23.000   -1.0920   -1.1243   -1.2264   -0.8568
    24.000   -1.1708   -1.2168   -1.3204   -0.9347
    25.000   -1.2521   -1.3136   -1.4179   -1.0160
    26.000   -1.3360   -1.4149   -1.5189   -1.1008
    27.000   -1.4223   -1.5208   -1.6235   -1.1890
    28.000   -1.5112   -1.6311   -1.7317   -1.2806
    29.000   -1.6024   -1.7461   -1.8434   -1.3756
    30.000   -1.6961   -1.8657   -1.9587   -1.4741
    31.000   -1.7921   -1.9901   -2.0775   -1.5760
    32.000   -1.8905   -2.1193   -2.1999   -1.6814
    33.000   -1.9911   -2.2534   -2.3259   -1.7902
    34.000   -2.0939   -2.3924   -2.4555   -1.9024
    35.000   -2.1989   -2.5365   -2.5886   -2.0180
    36.000   -2.3060   -2.6857   -2.7253   -2.1371
    37.000   -2.4152   -2.8401   -2.8655   -2.2597
    38.000   -2.5264   -2.9999   -3.0093   -2.3856
    39.000   -2.6396   -3.1651   -3.1566   -2.5150
    40.000   -2.7546   -3.3359   -3.3075   -2.6477
    41.000   -2.8715   -3.5125   -3.4620   -2.7839
    42.000   -2.9901   -3.6948   -3.6199   -2.9235
    43.000   -3.1104   -3.8832   -3.7814   -3.0664
    44.000   -3.2324   -4.0778   -3.9463   -3.2128
    45.000   -3.3558   -4.2787   -4.1148   -3.3624
    46.000   -3.4808   -4.4861   -4.2867   -3.5155
    47.000   -3.6071   -4.7003   -4.4621   -3.6718
    48.000   -3.7347   -4.9215   -4.6408   -3.8314
    49.000   -3.8636   -5.1499   -4.8229   -3.9942
    50.000   -3.9935   -5.3858   -5.0084   -4.1603
    51.000   -4.1245   -5.6295   -5.1971   -4.3295
    52.000   -4.2564   -5.8813   -5.3890   -4.5018
    53.000   -4.3891   -6.1415   -5.5841   -4.6773
    54.000   -4.5226   -6.4105   -5.7823   -4.8557
    55.000   -4.6567   -6.6888   -5.9835   -5.0370
    56.000   -4.7914   -6.9767   -6.1875   -5.2212
    57.000   -4.9264   -7.2749   -6.3943   -5.4082
    58.000   -5.0617   -7.5837   -6.6038   -5.5978
    59.000   -5.1973   -7.9039   -6.8157   -5.7899
    60.000   -5.3329   -8.2362   -7.0300   -5.9845
    61.000   -5.4684   -8.5812   -7.2463   -6.1812
    62.000   -5.6037   -8.9398   -7.4646   -6.3801
    63.000   -5.7388   -9.3129   -7.6844   -6.5808
    64.000   -5.8734   -9.7017   -7.9056   -6.7832
    65.000   -6.0075  -10.1073   -8.1279   -6.9871
    66.000   -6.1409  -10.5310   -8.3508   -7.1921
    67.000   -6.2734  -10.9745   -8.5739   -7.3979
    68.000   -6.4051  -11.4394   -8.7969   -7.6044
    69.000   -6.5356  -11.9278   -9.0192   -7.8110
    70.000   -6.6650  -12.4421   -9.2403   -8.0174
    71.000   -6.7930  -12.9851   -9.4595   -8.2231
    72.000   -6.9195  -13.5600   -9.6764   -8.4277
    73.000   -7.0444  -14.1707   -9.8900   -8.6308
    74.000   -7.1676  -14.8220  -10.0997   -8.8316
    75.000   -7.2889  -15.5193  -10.3048   -9.0297
    76.000   -7.4082  -16.2698  -10.5043   -9.2245
    77.000   -7.5254  -17.0820  -10.6974   -9.4152
    78.000   -7.6404  -17.9667  -10.8831   -9.6012
    79.000   -7.7531  -18.9379  -11.0606   -9.7818
    80.000   -7.8633  -20.0137  -11.2290   -9.9562
    81.000   -7.9709  -21.2176  -11.3874  -10.1238
    82.000   -8.0758  -22.5811  -11.5348  -10.2838
    83.000   -8.1779  -24.1447  -11.6706  -10.4354
    84.000   -8.2772  -25.9557  -11.7939  -10.5781
    85.000   -8.3735  -28.0438  -11.9042  -10.7111
    86.000   -8.4668  -30.0000  -12.0009  -10.8339
    87.000   -8.5570  -30.0000  -12.0837  -10.9459
    88.000   -8.6440  -30.0000  -12.1523  -11.0467
    89.000   -8.7277  -30.0000  -12.2067  -11.1360
    90.000   -8.8081  -28.3129  -12.2469  -11.2136
    91.000   -8.8852  -26.3449  -12.2731  -11.2793
    92.000   -8.9589  -24.6540  -12.2857  -11.3330
    93.000   -9.0292  -23.2100  -12.2852  -11.3750
    94.000   -9.0961  -21.9655  -12.2722  -11.4054
    95.000   -9.1594  -20.8801  -12.2473  -11.4245
    96.000   -9.2194  -19.9225  -12.2115  -11.4328
    97.000   -9.2759  -19.0692  -12.1655  -11.4307
    98.000   -9.3289  -18.3021  -12.1102  -11.4188
    99.000   -9.3785  -17.6074  -12.0465  -11.3978
   100.000   -9.4247  -16.9741  -11.9752  -11.3683
   101.000   -9.4675  -16.3938  -11.8973  -11.3310
   102.000   -9.5070  -15.8594  -11.8137  -11.2866
   103.000   -9.5432  -15.3653  -11.7250  -11.2358
   104.000   -9.5762  -14.9069  -11.6322  -11.1794
   105.000   -9.6060  -14.4802  -11.5358  -11.1181
   106.000   -9.6326  -14.0819  -11.4367  -11.0525
   107.000   -9.6562  -13.7094  -11.3354  -10.9832
   108.000   -9.6769  -13.3601  -11.2325  -10.9109
   109.000   -9.6946  -13.0322  -11.1285  -10.8362
   110.000   -9.7095  -12.7236  -11.0238  -10.7596
   111.000   -9.7217  -12.4330  -10.9190  -10.6815
   112.000   -9.7312  -12.1589  -10.8143  -10.6025
   113.000   -9.7381  -11.9002  -10.7102  -10.5229
   114.000   -9.7426  -11.6557  -10.6068  -10.4432
   115.000   -9.7447  -11.4246  -10.5044  -10.3636
   116.000   -9.7445  -11.2058  -10.4034  -10.2845
   117.000   -9.7421  -10.9988  -10.3038  -10.2062
   118.000   -9.7376  -10.8027  -10.2058  -10.1288
   119.000   -9.7311  -10.6170  -10.1096  -10.0526
   120.000   -9.7227  -10.4411  -10.0154   -9.9779
   121.000   -9.7124  -10.2744   -9.9231   -9.9047
   122.000   -9.7004  -10.1165   -9.8329   -9.8332
   123.000   -9.6868   -9.9670   -9.7449   -9.7635
   124.000   -9.6716   -9.8254   -9.6590   -9.6957
   125.000   -9.6549   -9.6913   -9.5754   -9.6300
   126.000   -9.6368   -9.5645   -9.4941   -9.5663
   127.000   -9.6174   -9.4447   -9.4151   -9.5047
   128.000   -9.5967   -9.3314   -9.3384   -9.4454
   129.000   -9.5749   -9.2244   -9.2640   -9.3882
   130.000   -9.5519   -9.1236   -9.1919   -9.3333
   131.000   -9.5280   -9.0285   -9.1222   -9.2805
   132.000   -9.5030   -8.9391   -9.0547   -9.2301
   133.000   -9.4772   -8.8551   -8.9894   -9.1818
   134.000   -9.4505   -8.7762   -8.9264   -9.1358
   135.000   -9.4231   -8.7024   -8.8657   -9.0920
   136.000   -9.3949   -8.6334   -8.8071   -9.0503
   137.000   -9.3660   -8.5690   -8.7506   -9.0108
   138.000   -9.3364   -8.5090   -8.6963   -8.9734
   139.000   -9.3063   -8.4534   -8.6440   -8.9380
   140.000   -9.2756   -8.4020   -8.5938   -8.9047
   141.000   -9.2444   -8.3546   -8.5455   -8.8733
   142.000   -9.2127   -8.3110   -8.4992   -8.8438
   143.000   -9.1806   -8.2712   -8.4548   -8.8162
   144.000   -9.1481   -8.2350   -8.4122   -8.7903
   145.000   -9.1151   -8.2023   -8.3714   -8.7662
   146.000   -9.0818   -8.1730   -8.3324   -8.7438
   147.000   -9.0482   -8.1469   -8.2951   -8.7230
   148.000   -9.0143   -8.1239   -8.2594   -8.7037
   149.000   -8.9800   -8.1040   -8.2254   -8.6858
   150.000   -8.9455   -8.0869   -8.1929   -8.6694
   151.000   -8.9107   -8.0727   -8.1619   -8.6543
   152.000   -8.8757   -8.0611   -8.1323   -8.6404
   153.000   -8.8405   -8.0522   -8.1041   -8.6277
   154.000   -8.8051   -8.0457   -8.0773   -8.6160
   155.000   -8.7695   -8.0416   -8.0518   -8.6055
   156.000   -8.7337   -8.0398   -8.0276   -8.5958
   157.000   -8.6977   -8.0402   -8.0045   -8.5871
   158.000   -8.6616   -8.0427   -7.9827   -8.5791
   159.000   -8.6253   -8.0472   -7.9619   -8.5719
   160.000   -8.5889   -8.0536   -7.9422   -8.5653
   161.000   -8.5524   -8.0618   -7.9235   -8.5593
   162.000   -8.5158   -8.0719   -7.9057   -8.5538
   163.000   -8.4790   -8.0835   -7.8889   -8.5487
   164.000   -8.4422   -8.0968   -7.8730   -8.5441
   165.000   -8.4054   -8.1115   -7.8580   -8.5397
   166.000   -8.3684   -8.1277   -7.8438   -8.5357
   167.000   -8.3314   -8.1452   -7.8303   -8.5318
   168.000   -8.2944   -8.1640   -7.8176   -8.5280
   169.000   -8.2574   -8.1840   -7.8056   -8.5243
   170.000   -8.2204   -8.2052   -7.7942   -8.5207
   171.000   -8.1833   -8.2274   -7.7836   -8.5170
   172.000   -8.1463   -8.2506   -7.7735   -8.5133
   173.000   -8.1093   -8.2747   -7.7640   -8.5095
   174.000   -8.0724   -8.2997   -7.7552   -8.5055
   175.000   -8.0356   -8.3256   -7.7468   -8.5013
   176.000   -7.9988   -8.3522   -7.7390   -8.4969
   177.000   -7.9622   -8.3796   -7.7318   -8.4923
   178.000   -7.9256   -8.4076   -7.7250   -8.4874
   179.000   -7.8893   -8.4363   -7.7187   -8.4823
   180.000   -7.8531   -8.4656   -7.7129   -8.4768
   181.000   -7.8170   -8.4955   -7.7076   -8.4710
   182.000   -7.7812   -8.5259   -7.7028   -8.4649
   183.000   -7.7456   -8.5569   -7.6985   -8.4584
   184.000   -7.7102   -8.5883   -7.6946   -8.4517
   185.000   -7.6751   -8.6202   -7.6912   -8.4445
   186.000   -7.6403   -8.6526   -7.6884   -8.4371
   187.000   -7.6058   -8.6855   -7.6860   -8.4293
   188.000   -7.5716   -8.7188   -7.6841   -8.4212
   189.000   -7.5378   -8.7526   -7.6827   -8.4128
   190.000   -7.5043   -8.7868   -7.6818   -8.4040
   191.000   -7.4712   -8.8215   -7.6815   -8.3951
   192.000   -7.4386   -8.8567   -7.6818   -8.3858
   193.000   -7.4063   -8.8924   -7.6826   -8.3764
   194.000   -7.3745   -8.9287   -7.6841   -8.3667
   195.000   -7.3432   -8.9655   -7.6862   -8.3569
   196.000   -7.3123   -9.0030   -7.6889   -8.3469
   197.000   -7.2820   -9.0410   -7.6923   -8.3368
   198.000   -7.2521   -9.0798   -7.6964   -8.3266
   199.000   -7.2228   -9.1193   -7.7012   -8.3164
   200.000   -7.1940   -9.1596   -7.7068   -8.3061
   201.000   -7.1658   -9.2008   -7.7131   -8.2959
   202.000   -7.1382   -9.2428   -7.7203   -8.2857
   203.000   -7.1111   -9.2859   -7.7283   -8.2756
   204.000   -7.0847   -9.3300   -7.7372   -8.2656
   205.000   -7.0588   -9.3752   -7.7469   -8.2558
   206.000   -7.0335   -9.4217   -7.7576   -8.2462
   207.000   -7.0089   -9.4695   -7.7692   -8.2368
   208.000   -6.9848   -9.5187   -7.7819   -8.2277
   209.000   -6.9614   -9.5694   -7.7955   -8.2190
   210.000   -6.9386   -9.6217   -7.8101   -8.2105
   211.000   -6.9164   -9.6757   -7.8258   -8.2024
   212.000   -6.8948   -9.7316   -7.8426   -8.1948
   213.000   -6.8738   -9.7894   -7.8605   -8.1876
   214.000   -6.8534   -9.8492   -7.8794   -8.1809
   215.000   -6.8336   -9.9113   -7.8995   -8.1746
   216.000   -6.8144   -9.9757   -7.9208   -8.1689
   217.000   -6.7957  -10.0426   -7.9432   -8.1638
   218.000   -6.7776  -10.1121   -7.9668   -8.1592
   219.000   -6.7600  -10.1844   -7.9915   -8.1553
   220.000   -6.7429  -10.2596   -8.0175   -8.1519
   221.000   -6.7263  -10.3379   -8.0446   -8.1493
   222.000   -6.7102  -10.4195   -8.0728   -8.1472
   223.000   -6.6945  -10.5046   -8.1023   -8.1458
   224.000   -6.6792  -10.5934   -8.1329   -8.1451
   225.000   -6.6642  -10.6860   -8.1646   -8.1451
   226.000   -6.6496  -10.7827   -8.1975   -8.1458
   227.000   -6.6353  -10.8836   -8.2314   -8.1471
   228.000   -6.6213  -10.9892   -8.2664   -8.1491
   229.000   -6.6074  -11.0995   -8.3024   -8.1517
   230.000   -6.5938  -11.2149   -8.3393   -8.1551
   231.000   -6.5803  -11.3356   -8.3772   -8.1590
   232.000   -6.5668  -11.4619   -8.4160   -8.1636
   233.000   -6.5534  -11.5942   -8.4555   -8.1687
   234.000   -6.5400  -11.7329   -8.4958   -8.1744
   235.000   -6.5265  -11.8781   -8.5367   -8.1806
   236.000   -6.5129  -12.0305   -8.5781   -8.1873
   237.000   -6.4991  -12.1903   -8.6200   -8.1944
   238.000   -6.4851  -12.3581   -8.6622   -8.2019
   239.000   -6.4708  -12.5344   -8.7046   -8.2097
   240.000   -6.4561  -12.7196   -8.7471   -8.2177
   241.000   -6.4410  -12.9144   -8.7895   -8.2259
   242.000   -6.4254  -13.1195   -8.8317   -8.2343
   243.000   -6.4092  -13.3355   -8.8735   -8.2426
   244.000   -6.3925  -13.5632   -8.9147   -8.2509
   245.000   -6.3750  -13.8035   -8.9552   -8.2591
   246.000   -6.3569  -14.0574   -8.9947   -8.2670
   247.000   -6.3379  -14.3259   -9.0330   -8.2745
   248.000   -6.3181  -14.6103   -9.0699   -8.2815
   249.000   -6.2973  -14.9118   -9.1051   -8.2879
   250.000   -6.2755  -15.2321   -9.1385   -8.2936
   251.000   -6.2527  -15.5729   -9.1697   -8.2984
   252.000   -6.2287  -15.9362   -9.1984   -8.3021
   253.000   -6.2036  -16.3242   -9.2244   -8.3048
   254.000   -6.1772  -16.7398   -9.2475   -8.3061
   255.000   -6.1495  -17.1858   -9.2672   -8.3059
   256.000   -6.1204  -17.6661   -9.2834   -8.3041
   257.000   -6.0899  -18.1850   -9.2956   -8.3005
   258.000   -6.0580  -18.7474   -9.3037   -8.2949
   259.000   -6.0245  -19.3597   -9.3074   -8.2872
   260.000   -5.9895  -20.0291   -9.3063   -8.2772
   261.000   -5.9529  -20.7648   -9.3001   -8.2648
   262.000   -5.9147  -21.5773   -9.2888   -8.2496
   263.000   -5.8747  -22.4798   -9.2719   -8.2317
   264.000   -5.8331  -23.4868   -9.2492   -8.2108
   265.000   -5.7897  -24.6138   -9.2207   -8.1867
   266.000   -5.7446  -25.8711   -9.1861   -8.1593
   267.000   -5.6976  -27.2490   -9.1452   -8.1285
   268.000   -5.6489  -28.6770   -9.0981   -8.0941
   269.000   -5.5983  -29.9384   -9.0445   -8.0561
   270.000   -5.5459  -30.0000   -8.9845   -8.0142
   271.000   -5.4917  -30.0000   -8.9180   -7.9684
   272.000   -5.4357  -29.1653   -8.8451   -7.9186
   273.000   -5.3778  -27.6403   -8.7659   -7.8647
   274.000   -5.3182  -26.0697   -8.6805   -7.8067
   275.000   -5.2567  -24.5924   -8.5889   -7.7445
   276.000   -5.1934  -23.2445   -8.4914   -7.6782
   277.000   -5.1284  -22.0236   -8.3881   -7.6077
   278.000   -5.0617  -20.9163   -8.2793   -7.5330
   279.000   -4.9932  -19.9071   -8.1653   -7.4542
   280.000   -4.9231  -18.9821   -8.0462   -7.3713
   281.000   -4.8514  -18.1293   -7.9224   -7.2844
   282.000   -4.7781  -17.3389   -7.7942   -7.1936
   283.000   -4.7032  -16.6026   -7.6618   -7.0990
   284.000   -4.6269  -15.9136   -7.5256   -7.0007
   285.000   -4.5492  -15.2664   -7.3860   -6.8989
   286.000   -4.4701  -14.6562   -7.2431   -6.7937
   287.000   -4.3897  -14.0790   -7.0974   -6.6852
   288.000   -4.3080  -13.5315   -6.9491   -6.5736
   289.000   -4.2252  -13.0109   -6.7986   -6.4592
   290.000   -4.1413  -12.5146   -6.6462   -6.3420
   291.000   -4.0563  -12.0406   -6.4921   -6.2223
   292.000   -3.9704  -11.5870   -6.3367   -6.1003
   293.000   -3.8837  -11.1522   -6.1802   -5.9761
   294.000   -3.7961  -10.7348   -6.0229   -5.8500
   295.000   -3.7078  -10.3336   -5.8651   -5.7222
   296.000   -3.6189   -9.9473   -5.7069   -5.5929
   297.000   -3.5294   -9.5752   -5.5486   -5.4622
   298.000   -3.4395   -9.2162   -5.3905   -5.3304
   299.000   -3.3492   -8.8696   -5.2328   -5.1977
   300.000   -3.2586   -8.5348   -5.0756   -5.0642
   301.000   -3.1678   -8.2110   -4.9191   -4.9302
   302.000   -3.0768   -7.8976   -4.7635   -4.7958
   303.000   -2.9858   -7.5943   -4.6090   -4.6612
   304.000   -2.8949   -7.3004   -4.4557   -4.5266
   305.000   -2.8041   -7.0156   -4.3037   -4.3921
   306.000   -2.7135   -6.7395   -4.1533   -4.2580
   307.000   -2.6232   -6.4717   -4.0045   -4.1243
   308.000   -2.5333   -6.2119   -3.8574   -3.9912
   309.000   -2.4439   -5.9598   -3.7122   -3.8588
   310.000   -2.3550   -5.7151   -3.5690   -3.7274
   311.000   -2.2668   -5.4776   -3.4278   -3.5969
   312.000   -2.1793   -5.2469   -3.2887   -3.4676
   313.000   -2.0926   -5.0230   -3.1519   -3.3396
   314.000   -2.0067   -4.8056   -3.0174   -3.2129
   315.000   -1.9218   -4.5945   -2.8852   -3.0877
   316.000   -1.8380   -4.3896   -2.7556   -2.9641
   317.000   -1.7552   -4.1907   -2.6284   -2.8421
   318.000   -1.6736   -3.9976   -2.5038   -2.7220
   319.000   -1.5933   -3.8102   -2.3818   -2.6037
   320.000   -1.5143   -3.6284   -2.2626   -2.4873
   321.000   -1.4366   -3.4520   -2.1460   -2.3729
   322.000   -1.3604   -3.2810   -2.0323   -2.2607
   323.000   -1.2858   -3.1153   -1.9214   -2.1506
   324.000   -1.2127   -2.9547   -1.8133   -2.0427
   325.000   -1.1412   -2.7992   -1.7081   -1.9371
   326.000   -1.0715   -2.6486   -1.6059   -1.8339
   327.000   -1.0035   -2.5030   -1.5067   -1.7331
   328.000   -0.9373   -2.3622   -1.4105   -1.6347
   329.000   -0.8731   -2.2261   -1.3173   -1.5389
   330.000   -0.8107   -2.0948   -1.2271   -1.4456
   331.000   -0.7503   -1.9680   -1.1401   -1.3549
   332.000   -0.6919   -1.8459   -1.0562   -1.2669
   333.000   -0.6356   -1.7283   -0.9754   -1.1816
   334.000   -0.5815   -1.6152   -0.8977   -1.0990
   335.000   -0.5295   -1.5065   -0.8233   -1.0191
   336.000   -0.4797   -1.4022   -0.7521   -0.9421
   337.000   -0.4321   -1.3023   -0.6840   -0.8679
   338.000   -0.3869   -1.2067   -0.6193   -0.7966
   339.000   -0.3440   -1.1154   -0.5577   -0.7282
   340.000   -0.3034   -1.0284   -0.4995   -0.6627
   341.000   -0.2653   -0.9455   -0.4445   -0.6001
   342.000   -0.2296   -0.8669   -0.3929   -0.5406
   343.000   -0.1963   -0.7924   -0.3445   -0.4840
   344.000   -0.1656   -0.7221   -0.2995   -0.4304
   345.000   -0.1374   -0.6559   -0.2578   -0.3799
   346.000   -0.1117   -0.5938   -0.2195   -0.3325
   347.000   -0.0887   -0.5359   -0.1846   -0.2882
   348.000   -0.0682   -0.4819   -0.1530   -0.2469
   349.000   -0.0504   -0.4321   -0.1248   -0.2088
   350.000   -0.0352   -0.3862   -0.1000   -0.1738
   351.000   -0.0228   -0.3444   -0.0786   -0.1420
   352.000   -0.0130   -0.3067   -0.0606   -0.1134
   353.000   -0.0059   -0.2729   -0.0460   -0.0879
   354.000   -0.0016   -0.2431   -0.0349   -0.0656
   355.000    0.0000   -0.2173   -0.0271   -0.0466
   356.000   -0.0012   -0.1955   -0.0229   -0.0308
   357.000   -0.0051   -0.1777   -0.0220   -0.0182
   358.000   -0.0119   -0.1639   -0.0247   -0.0089
   359.000   -0.0214   -0.1540   -0.0307   -0.0028
   360.000   -0.0337   -0.1481   -0.0403    0.0000




